Trial	CorrectionTrial?	StartTime	CenterReward?	F1	F2	F3	F4	HoldTime	Atten	Pitch	Side	Response	RespTime	Correct	
1	0	10.6066	0	730	2058	2857	4205	851	-7.0	200	1	1	12.1831	1	
2	0	16.7767	0	730	2058	2857	4205	651	-7.0	200	1	1	18.1760	1	
3	0	23.1359	0	460	1105	2857	4205	601	-10.0	200	0	0	24.7392	1	
4	0	34.8483	1	730	2058	2857	4205	951	-10.0	200	1	1	37.2193	1	
5	0	42.4005	0	460	1105	2857	4205	801	-10.0	200	0	1	44.4888	0	
6	1	54.5035	0	460	1105	2857	4205	801	-10.0	200	0	0	55.1494	1	
7	0	62.3000	0	460	1105	2857	4205	501	-10.0	NaN	-1	0	62.8386	-1	
8	0	71.0362	0	460	1105	2857	4205	501	-7.0	200	0	0	72.0462	1	
9	0	78.5333	0	730	2058	2857	4205	501	-10.0	NaN	-1	1	79.5888	-1	
10	0	85.8839	0	730	2058	2857	4205	1001	-7.0	200	1	1	87.2468	1	
11	0	93.9616	0	460	1105	2857	4205	501	-10.0	NaN	-1	1	95.8483	-1	
12	0	102.5427	0	460	1105	2857	4205	701	-7.0	200	0	0	103.5523	1	
13	0	116.7097	0	730	2058	2857	4205	1001	-7.0	200	1	1	117.4164	1	
14	0	122.5380	0	730	2058	2857	4205	601	-7.0	200	1	1	123.2417	1	
15	0	128.5820	0	730	2058	2857	4205	501	-10.0	NaN	-1	1	129.6145	-1	
16	0	136.1934	0	460	1105	2857	4205	901	-10.0	200	0	0	136.8473	1	
17	0	144.4601	0	460	1105	2857	4205	851	-7.0	200	0	1	145.4708	0	
18	1	161.5832	0	460	1105	2857	4205	851	-7.0	200	0	0	162.5425	1	
19	0	168.8702	1	460	1105	2857	4205	651	-10.0	200	0	0	171.4267	1	
20	0	177.9873	0	460	1105	2857	4205	551	-10.0	200	0	0	180.0938	1	
21	0	191.9045	0	730	2058	2857	4205	951	-7.0	200	1	1	192.5616	1	
22	0	198.4632	0	730	2058	2857	4205	501	-10.0	NaN	-1	1	200.8398	-1	
23	0	208.6484	0	460	1105	2857	4205	751	-10.0	200	0	0	210.5518	1	
24	0	220.7386	0	730	2058	2857	4205	901	-7.0	200	1	1	221.7838	1	
25	0	229.0382	1	730	2058	2857	4205	651	-10.0	200	1	1	230.4822	1	
26	0	237.5146	0	460	1105	2857	4205	501	-10.0	NaN	-1	1	245.1186	-1	
27	0	251.1625	0	730	2058	2857	4205	851	-7.0	200	1	1	252.6046	1	
28	0	258.8381	0	460	1105	2857	4205	951	-10.0	200	0	1	263.9042	0	
29	1	278.8464	0	460	1105	2857	4205	951	-10.0	200	0	0	279.2078	1	
30	0	290.0860	0	460	1105	2857	4205	551	-7.0	200	0	1	291.5224	0	
31	1	297.3632	0	460	1105	2857	4205	551	-7.0	200	0	0	298.5222	1	
32	0	309.1388	0	730	2058	2857	4205	501	-10.0	NaN	-1	1	310.4064	-1	
33	0	315.7389	0	460	1105	2857	4205	501	-10.0	NaN	-1	1	316.9829	-1	
34	0	328.3801	0	460	1105	2857	4205	1001	-7.0	200	0	0	329.4282	1	
35	0	340.1118	0	730	2058	2857	4205	601	-7.0	200	1	1	341.0294	1	
36	0	345.1826	0	730	2058	2857	4205	751	-7.0	200	1	1	346.2948	1	
37	0	352.4632	0	460	1105	2857	4205	501	-10.0	NaN	-1	1	354.1038	-1	
38	0	360.2985	0	460	1105	2857	4205	801	-7.0	200	0	1	361.6575	0	
39	1	377.4314	0	460	1105	2857	4205	801	-7.0	200	0	0	378.0150	1	
40	0	387.0311	0	730	2058	2857	4205	501	-10.0	NaN	-1	1	388.4056	-1	
41	0	394.6042	0	730	2058	2857	4205	951	-7.0	200	1	1	395.6672	1	
42	0	401.0614	0	730	2058	2857	4205	851	-7.0	200	1	1	401.9217	1	
43	0	408.3940	0	460	1105	2857	4205	501	-7.0	200	0	0	409.7851	1	
44	0	418.1692	0	730	2058	2857	4205	551	-7.0	200	1	1	418.9685	1	
45	0	427.3877	0	460	1105	2857	4205	651	-10.0	200	0	1	429.7325	0	
46	1	436.1775	0	460	1105	2857	4205	651	-10.0	200	0	0	436.6530	1	
47	0	444.5154	0	460	1105	2857	4205	801	-7.0	200	0	1	445.9979	0	
48	1	455.7531	0	460	1105	2857	4205	801	-7.0	200	0	0	457.1344	1	
49	0	469.6895	0	730	2058	2857	4205	951	-7.0	200	1	1	470.3379	1	
50	0	478.6237	0	730	2058	2857	4205	501	-10.0	NaN	-1	1	479.6621	-1	
51	0	489.5511	0	460	1105	2857	4205	651	-10.0	200	0	0	490.2319	1	
52	0	502.9127	0	730	2058	2857	4205	501	-7.0	200	1	1	504.8189	1	
53	0	520.4592	0	460	1105	2857	4205	501	-10.0	NaN	-1	1	522.6864	-1	
54	0	558.6423	1	730	2058	2857	4205	751	-7.0	200	1	0	559.7130	0	
55	1	569.4786	0	730	2058	2857	4205	751	-7.0	200	1	1	570.4622	1	
56	0	572.0972	1	460	1105	2857	4205	701	-7.0	200	0	1	579.9894	0	
57	1	587.8838	0	460	1105	2857	4205	701	-7.0	200	0	0	589.1008	1	
58	0	598.6120	0	730	2058	2857	4205	901	-10.0	200	1	1	599.8273	1	
59	0	601.4461	0	460	1105	2857	4205	501	-10.0	NaN	-1	1	602.6670	-1	
60	0	605.4022	0	730	2058	2857	4205	601	-10.0	200	1	1	606.7019	1	
61	0	613.8570	1	460	1105	2857	4205	901	-10.0	200	0	0	625.1605	1	
62	0	634.5761	0	460	1105	2857	4205	851	-7.0	200	0	0	635.3385	1	
63	0	638.2138	0	730	2058	2857	4205	701	-7.0	200	1	0	639.1232	0	
64	1	646.5710	1	730	2058	2857	4205	701	-7.0	200	1	1	647.5067	1	
65	0	653.6278	0	460	1105	2857	4205	501	-10.0	200	0	1	659.3699	0	
66	1	665.2253	0	460	1105	2857	4205	501	-10.0	200	0	0	666.0088	1	
67	0	675.0249	0	730	2058	2857	4205	501	-10.0	NaN	-1	1	676.4958	-1	
68	0	692.7169	0	730	2058	2857	4205	551	-7.0	200	1	1	694.2095	1	
69	0	697.0329	0	460	1105	2857	4205	501	-10.0	NaN	-1	0	698.1100	-1	
70	0	708.8348	0	730	2058	2857	4205	501	-10.0	NaN	-1	1	710.1296	-1	
71	0	713.8008	0	730	2058	2857	4205	801	-7.0	200	1	1	714.7358	1	
72	0	725.3748	0	460	1105	2857	4205	951	-7.0	200	0	0	727.2306	1	
73	0	736.7150	0	460	1105	2857	4205	551	-7.0	200	0	0	737.6783	1	
74	0	746.0098	0	730	2058	2857	4205	651	-7.0	200	1	1	746.7924	1	
75	0	753.4473	0	460	1105	2857	4205	601	-10.0	200	0	0	754.6530	1	
76	0	765.8589	0	460	1105	2857	4205	801	-10.0	200	0	0	767.0794	1	
77	0	778.8828	0	460	1105	2857	4205	751	-7.0	200	0	1	781.0711	0	
78	1	790.8110	0	460	1105	2857	4205	751	-7.0	200	0	0	791.2113	1	
79	0	802.1409	0	730	2058	2857	4205	501	-7.0	200	1	1	803.4279	1	
80	0	812.9001	0	460	1105	2857	4205	901	-7.0	200	0	0	813.9536	1	
81	0	819.3585	0	730	2058	2857	4205	501	-10.0	NaN	-1	0	820.0000	-1	
82	0	829.1481	0	460	1105	2857	4205	501	-10.0	NaN	-1	0	829.6906	-1	
83	0	844.6516	0	730	2058	2857	4205	951	-10.0	200	1	1	845.2351	1	
84	0	847.1804	0	730	2058	2857	4205	651	-7.0	200	1	1	848.7204	1	
85	0	854.5763	0	460	1105	2857	4205	701	-10.0	200	0	1	856.8649	0	
86	1	862.7954	0	460	1105	2857	4205	701	-10.0	200	0	0	863.1698	1	
87	0	868.9321	0	460	1105	2857	4205	751	-7.0	200	0	0	869.3735	1	
88	0	878.0371	0	730	2058	2857	4205	851	-7.0	200	1	0	879.2574	0	
89	1	912.6580	0	730	2058	2857	4205	851	-7.0	200	1	1	914.6163	1	
90	0	919.0255	0	460	1105	2857	4205	501	-10.0	NaN	-1	0	920.2682	-1	
91	0	927.2855	0	730	2058	2857	4205	1001	-10.0	200	1	0	927.9347	0	
92	1	937.9693	1	730	2058	2857	4205	1001	-10.0	200	1	1	940.5007	1	
93	0	945.5057	0	730	2058	2857	4205	501	-10.0	NaN	-1	1	950.3869	-1	
94	0	956.4746	0	460	1105	2857	4205	801	-10.0	200	0	0	958.2640	1	
95	0	965.3980	0	730	2058	2857	4205	501	-7.0	200	1	1	966.5285	1	
96	0	973.8968	0	730	2058	2857	4205	851	-7.0	200	1	1	975.7182	1	
97	0	980.6401	1	730	2058	2857	4205	651	-10.0	200	1	1	987.9078	1	
98	0	993.0365	0	730	2058	2857	4205	501	-10.0	NaN	-1	1	994.6508	-1	
99	0	1000.2237	0	460	1105	2857	4205	501	-10.0	NaN	-1	1	1001.9140	-1	
100	0	1008.5714	0	460	1105	2857	4205	501	-7.0	200	0	0	1010.7028	1	
101	0	1024.8312	1	730	2058	2857	4205	901	-7.0	200	1	1	1030.4261	1	
102	0	1038.5374	0	460	1105	2857	4205	701	-10.0	200	0	1	1041.6233	0	
103	1	1052.2801	1	460	1105	2857	4205	701	-10.0	200	0	0	1058.4921	1	
104	0	1068.3814	0	460	1105	2857	4205	1001	-7.0	200	0	0	1069.2389	1	
105	0	1077.6769	0	460	1105	2857	4205	801	-7.0	200	0	0	1078.1202	1	
106	0	1084.4694	0	730	2058	2857	4205	501	-10.0	NaN	-1	1	1085.8920	-1	
107	0	1089.2811	0	460	1105	2857	4205	501	-10.0	NaN	-1	1	1090.8144	-1	
108	0	1096.6606	0	730	2058	2857	4205	901	-10.0	200	1	1	1098.0074	1	
109	0	1103.5997	0	730	2058	2857	4205	551	-10.0	200	1	1	1105.2632	1	
110	0	1111.2223	0	460	1105	2857	4205	701	-10.0	200	0	0	1112.3284	1	
111	0	1122.3466	0	460	1105	2857	4205	651	-10.0	200	0	0	1122.9134	1	
112	0	1131.5823	0	730	2058	2857	4205	1001	-7.0	200	1	0	1132.0321	0	
113	1	1139.2818	0	730	2058	2857	4205	1001	-7.0	200	1	1	1140.9358	1	
114	0	1145.9068	0	460	1105	2857	4205	501	-10.0	NaN	-1	1	1147.6191	-1	
115	0	1151.8211	0	730	2058	2857	4205	951	-10.0	200	1	1	1152.8823	1	
116	0	1158.3354	0	730	2058	2857	4205	801	-7.0	200	1	1	1159.6485	1	
117	0	1165.7073	0	460	1105	2857	4205	601	-7.0	200	0	0	1166.6663	1	
118	0	1172.8608	0	460	1105	2857	4205	501	-10.0	200	0	0	1173.3569	1	
119	0	1181.1302	0	460	1105	2857	4205	801	-10.0	200	0	0	1181.5071	1	
120	0	1192.6570	0	730	2058	2857	4205	501	-10.0	NaN	-1	1	1194.0506	-1	
121	0	1199.9556	0	730	2058	2857	4205	601	-10.0	200	1	1	1201.7866	1	
122	0	1207.3511	0	730	2058	2857	4205	1001	-10.0	200	1	1	1208.6440	1	
123	0	1215.5036	0	730	2058	2857	4205	951	-10.0	200	1	1	1216.6960	1	
124	0	1227.4630	0	730	2058	2857	4205	501	-10.0	NaN	-1	1	1228.6541	-1	
125	0	1235.1252	0	460	1105	2857	4205	651	-10.0	200	0	0	1236.0890	1	
126	0	1245.1657	0	730	2058	2857	4205	701	-7.0	200	1	1	1246.0029	1	
127	0	1251.0734	0	460	1105	2857	4205	851	-7.0	200	0	0	1252.0545	1	
128	0	1254.9501	0	460	1105	2857	4205	501	-10.0	NaN	-1	0	1255.7731	-1	
129	0	1265.7054	1	460	1105	2857	4205	551	-10.0	200	0	0	1266.4413	1	
130	0	1269.3180	0	460	1105	2857	4205	601	-10.0	200	0	0	1276.8001	1	
131	0	1288.1447	0	730	2058	2857	4205	851	-10.0	200	1	1	1289.2426	1	
132	0	1294.2459	0	460	1105	2857	4205	951	-7.0	200	0	0	1295.2435	1	
133	0	1303.6641	0	460	1105	2857	4205	901	-7.0	200	0	0	1304.2612	1	
134	0	1309.4988	0	730	2058	2857	4205	501	-10.0	NaN	-1	1	1310.7834	-1	
135	0	1316.0186	0	460	1105	2857	4205	501	-10.0	NaN	-1	1	1317.6684	-1	
136	0	1321.8176	0	730	2058	2857	4205	651	-10.0	200	1	1	1323.0123	1	
137	0	1327.6846	0	730	2058	2857	4205	801	-10.0	200	1	1	1328.7427	1	
138	0	1333.1270	0	730	2058	2857	4205	901	-10.0	200	1	1	1334.5634	1	
139	0	1340.7810	0	730	2058	2857	4205	501	-10.0	NaN	-1	1	1342.7198	-1	
140	0	1348.0584	0	460	1105	2857	4205	751	-7.0	200	0	0	1348.6841	1	
141	0	1357.2846	0	460	1105	2857	4205	801	-10.0	200	0	0	1357.9179	1	
142	0	1364.7440	0	730	2058	2857	4205	651	-7.0	200	1	1	1365.8354	1	
143	0	1371.8646	0	460	1105	2857	4205	701	-10.0	200	0	0	1372.9939	1	
144	0	1378.1629	0	730	2058	2857	4205	501	-10.0	200	1	1	1379.4230	1	
145	0	1385.1699	0	460	1105	2857	4205	501	-10.0	NaN	-1	0	1385.9411	-1	
146	0	1393.2416	0	730	2058	2857	4205	851	-10.0	200	1	1	1394.3851	1	
147	0	1401.4074	0	460	1105	2857	4205	501	-10.0	NaN	-1	1	1403.2647	-1	
148	0	1408.2117	1	460	1105	2857	4205	851	-7.0	200	0	1	1415.0138	0	
