Trial	CorrectionTrial?	StartTime	CenterReward?	F1	F2	F3	F4	HoldTime	Atten	Pitch	Side	Response	RespTime	Correct	
1	0	29.939	0	730	2058	2857	4205	601	-14.0	200	1	0	33.436	0	
2	1	44.415	0	730	2058	2857	4205	601	-14.0	200	1	0	45.108	0	
3	1	60.855	0	730	2058	2857	4205	601	-14.0	200	1	1	61.546	1	
4	0	66.678	0	730	2058	2857	4205	901	-14.0	200	1	1	67.493	1	
5	0	71.879	0	730	2058	2857	4205	801	-14.0	200	1	1	72.828	1	
6	0	77.040	0	460	1105	2857	4205	501	-12.0	200	0	0	77.905	1	
7	0	85.197	0	460	1105	2857	4205	501	-17.0	200	-1	1	85.805	-1	
8	0	90.094	0	460	1105	2857	4205	701	-12.0	200	0	1	90.559	0	
9	1	102.644	1	460	1105	2857	4205	701	-12.0	200	0	0	108.072	1	
10	0	109.514	0	730	2058	2857	4205	501	-15.5	200	-1	0	110.124	-1	
11	0	121.037	0	460	1105	2857	4205	1001	-12.0	200	0	1	121.386	0	
12	1	133.282	0	460	1105	2857	4205	1001	-12.0	200	0	1	133.557	0	
13	1	146.095	0	460	1105	2857	4205	1001	-12.0	200	0	0	148.847	1	
14	0	155.293	0	730	2058	2857	4205	851	-14.0	200	1	1	155.739	1	
15	0	160.680	1	460	1105	2857	4205	751	-12.0	200	0	0	165.471	1	
16	0	172.684	0	460	1105	2857	4205	851	-12.0	200	0	0	173.071	1	
17	0	179.123	0	460	1105	2857	4205	701	-12.0	200	0	0	179.401	1	
18	0	185.411	0	730	2058	2857	4205	501	-15.5	200	-1	0	186.099	-1	
19	0	194.530	0	460	1105	2857	4205	501	-17.0	200	-1	0	195.355	-1	
20	0	202.967	0	730	2058	2857	4205	801	-14.0	200	1	1	203.253	1	
21	0	210.780	0	730	2058	2857	4205	901	-14.0	200	1	1	211.317	1	
22	0	215.842	0	460	1105	2857	4205	551	-12.0	200	0	0	216.464	1	
23	0	220.800	0	730	2058	2857	4205	501	-15.5	200	-1	0	221.636	-1	
24	0	241.246	0	460	1105	2857	4205	951	-12.0	200	0	0	241.617	1	
25	0	248.505	0	730	2058	2857	4205	1001	-14.0	200	1	1	248.864	1	
26	0	255.073	1	460	1105	2857	4205	701	-12.0	200	0	0	258.753	1	
27	0	266.947	0	730	2058	2857	4205	651	-14.0	200	1	0	267.117	0	
28	1	281.879	0	730	2058	2857	4205	651	-14.0	200	1	1	282.715	1	
29	0	289.676	0	730	2058	2857	4205	1001	-14.0	200	1	1	290.180	1	
30	0	297.287	0	460	1105	2857	4205	501	-17.0	200	-1	1	298.048	-1	
31	0	303.693	0	730	2058	2857	4205	751	-14.0	200	1	1	304.277	1	
32	0	308.887	0	460	1105	2857	4205	501	-17.0	200	-1	0	309.894	-1	
33	0	315.264	0	730	2058	2857	4205	501	-14.0	200	1	0	316.243	0	
34	1	327.806	0	730	2058	2857	4205	501	-14.0	200	1	1	328.512	1	
35	0	333.210	0	460	1105	2857	4205	551	-12.0	200	0	0	333.810	1	
36	0	340.517	0	730	2058	2857	4205	801	-14.0	200	1	1	341.460	1	
37	0	346.263	0	460	1105	2857	4205	901	-12.0	200	0	0	347.443	1	
38	0	354.663	0	460	1105	2857	4205	701	-12.0	200	0	0	355.025	1	
39	0	362.185	0	730	2058	2857	4205	501	-15.5	200	-1	1	362.999	-1	
40	0	369.324	0	460	1105	2857	4205	951	-12.0	200	0	0	369.705	1	
41	0	376.401	0	460	1105	2857	4205	801	-12.0	200	0	0	376.652	1	
42	0	382.671	0	730	2058	2857	4205	501	-15.5	200	-1	1	383.321	-1	
43	0	389.278	0	460	1105	2857	4205	551	-12.0	200	0	0	390.126	1	
44	0	396.664	0	730	2058	2857	4205	651	-14.0	200	1	1	397.544	1	
45	0	402.671	0	460	1105	2857	4205	501	-17.0	200	-1	0	403.469	-1	
46	0	409.302	0	730	2058	2857	4205	851	-14.0	200	1	1	409.591	1	
47	0	413.953	0	730	2058	2857	4205	501	-14.0	200	1	1	414.585	1	
48	0	419.606	0	460	1105	2857	4205	501	-12.0	200	0	0	420.164	1	
49	0	426.359	0	460	1105	2857	4205	501	-17.0	200	-1	0	427.313	-1	
50	0	434.596	0	460	1105	2857	4205	801	-12.0	200	0	0	435.081	1	
51	0	443.318	1	730	2058	2857	4205	851	-14.0	200	1	0	462.278	0	
52	1	480.219	0	730	2058	2857	4205	851	-14.0	200	1	1	480.800	1	
53	0	487.471	0	730	2058	2857	4205	701	-14.0	200	1	1	488.066	1	
54	0	492.650	0	730	2058	2857	4205	501	-15.5	200	-1	1	493.591	-1	
55	0	499.746	0	730	2058	2857	4205	751	-14.0	200	1	1	500.442	1	
56	0	506.331	0	460	1105	2857	4205	551	-12.0	200	0	0	506.816	1	
57	0	513.938	0	730	2058	2857	4205	501	-15.5	200	-1	1	515.807	-1	
58	0	521.891	0	460	1105	2857	4205	601	-12.0	200	0	1	522.614	0	
59	1	533.816	0	460	1105	2857	4205	601	-12.0	200	0	0	534.571	1	
60	0	542.521	0	460	1105	2857	4205	501	-17.0	200	-1	1	543.223	-1	
61	0	548.101	0	730	2058	2857	4205	701	-14.0	200	1	1	548.780	1	
62	0	553.970	0	460	1105	2857	4205	601	-12.0	200	0	0	554.605	1	
63	0	557.534	0	460	1105	2857	4205	901	-12.0	200	0	0	558.053	1	
64	0	564.378	0	730	2058	2857	4205	851	-14.0	200	1	1	564.837	1	
65	0	570.975	1	730	2058	2857	4205	801	-14.0	200	1	1	571.567	1	
66	0	575.055	0	730	2058	2857	4205	551	-14.0	200	1	1	577.507	1	
67	0	583.815	0	460	1105	2857	4205	751	-12.0	200	0	0	584.484	1	
68	0	592.460	0	730	2058	2857	4205	501	-15.5	200	-1	1	593.456	-1	
69	0	599.145	0	460	1105	2857	4205	1001	-12.0	200	0	1	599.459	0	
70	1	611.786	0	460	1105	2857	4205	1001	-12.0	200	0	0	612.377	1	
71	0	617.092	0	460	1105	2857	4205	501	-17.0	200	-1	1	618.059	-1	
72	0	624.335	0	730	2058	2857	4205	1001	-14.0	200	1	1	624.586	1	
73	0	639.151	0	460	1105	2857	4205	851	-12.0	200	0	1	639.535	0	
74	1	652.625	0	460	1105	2857	4205	851	-12.0	200	0	0	653.384	1	
75	0	656.811	0	730	2058	2857	4205	551	-14.0	200	1	1	657.465	1	
76	0	662.512	0	730	2058	2857	4205	701	-14.0	200	1	1	663.303	1	
77	0	667.362	0	730	2058	2857	4205	901	-14.0	200	1	1	668.084	1	
78	0	673.464	0	730	2058	2857	4205	601	-14.0	200	1	1	674.497	1	
79	0	680.154	1	460	1105	2857	4205	801	-12.0	200	0	0	683.919	1	
80	0	688.762	0	460	1105	2857	4205	501	-12.0	200	0	0	689.392	1	
81	0	694.570	0	730	2058	2857	4205	501	-15.5	200	-1	1	695.271	-1	
82	0	699.745	0	460	1105	2857	4205	501	-17.0	200	-1	0	700.511	-1	
83	0	706.359	0	460	1105	2857	4205	551	-12.0	200	0	0	706.787	1	
84	0	713.663	0	460	1105	2857	4205	751	-12.0	200	0	0	714.083	1	
85	0	719.386	1	730	2058	2857	4205	701	-14.0	200	1	1	719.957	1	
86	0	724.195	0	460	1105	2857	4205	1001	-12.0	200	0	0	727.841	1	
87	0	737.398	0	730	2058	2857	4205	901	-14.0	200	1	1	737.865	1	
88	0	742.554	0	730	2058	2857	4205	801	-14.0	200	1	1	743.174	1	
89	0	747.710	0	730	2058	2857	4205	501	-15.5	200	-1	1	748.819	-1	
90	0	753.831	0	460	1105	2857	4205	501	-12.0	200	0	0	754.349	1	
91	0	760.515	0	460	1105	2857	4205	501	-17.0	200	-1	0	761.300	-1	
92	0	775.110	0	460	1105	2857	4205	951	-12.0	200	0	0	775.480	1	
93	0	780.766	0	730	2058	2857	4205	551	-14.0	200	1	1	781.694	1	
94	0	786.612	0	460	1105	2857	4205	1001	-12.0	200	0	0	787.188	1	
95	0	794.482	0	460	1105	2857	4205	501	-17.0	200	-1	0	795.341	-1	
96	0	800.411	0	730	2058	2857	4205	501	-15.5	200	-1	1	801.506	-1	
97	0	807.379	0	460	1105	2857	4205	501	-12.0	200	0	0	808.259	1	
98	0	814.295	0	730	2058	2857	4205	701	-14.0	200	1	1	814.885	1	
99	0	820.201	0	730	2058	2857	4205	651	-14.0	200	1	1	821.012	1	
100	0	824.697	0	460	1105	2857	4205	501	-17.0	200	-1	1	825.351	-1	
101	0	831.687	0	730	2058	2857	4205	751	-14.0	200	1	1	832.501	1	
102	0	841.984	0	460	1105	2857	4205	901	-12.0	200	0	0	842.948	1	
103	0	848.479	0	730	2058	2857	4205	501	-15.5	200	-1	1	849.224	-1	
104	0	853.650	0	460	1105	2857	4205	551	-12.0	200	0	0	854.553	1	
105	0	864.429	0	460	1105	2857	4205	1001	-12.0	200	0	1	865.150	0	
106	1	877.753	0	460	1105	2857	4205	1001	-12.0	200	0	0	878.492	1	
107	0	890.590	0	730	2058	2857	4205	851	-14.0	200	1	1	891.297	1	
108	0	896.987	0	730	2058	2857	4205	651	-14.0	200	1	1	898.005	1	
109	0	904.250	0	460	1105	2857	4205	801	-12.0	200	0	0	905.111	1	
110	0	906.956	0	730	2058	2857	4205	501	-15.5	200	-1	1	908.062	-1	
111	0	913.656	1	730	2058	2857	4205	701	-14.0	200	1	1	916.528	1	
112	0	923.213	0	460	1105	2857	4205	751	-12.0	200	0	0	924.784	1	
113	0	930.062	0	730	2058	2857	4205	1001	-14.0	200	1	1	930.750	1	
114	0	937.543	0	460	1105	2857	4205	951	-12.0	200	0	0	938.080	1	
115	0	943.952	0	460	1105	2857	4205	501	-17.0	200	-1	1	944.661	-1	
116	0	951.371	0	730	2058	2857	4205	501	-14.0	200	1	1	952.306	1	
117	0	956.270	0	460	1105	2857	4205	701	-12.0	200	0	0	957.113	1	
118	0	964.560	0	730	2058	2857	4205	851	-14.0	200	1	1	965.286	1	
119	0	969.821	0	460	1105	2857	4205	501	-17.0	200	-1	0	970.494	-1	
120	0	976.821	0	730	2058	2857	4205	751	-14.0	200	1	1	977.460	1	
121	0	982.809	0	730	2058	2857	4205	501	-15.5	200	-1	0	983.896	-1	
122	0	989.153	0	730	2058	2857	4205	801	-14.0	200	1	1	989.996	1	
123	0	995.298	0	460	1105	2857	4205	851	-12.0	200	0	0	995.738	1	
124	0	1003.126	0	460	1105	2857	4205	1001	-12.0	200	0	0	1003.434	1	
125	0	1009.382	0	460	1105	2857	4205	651	-12.0	200	0	0	1010.153	1	
126	0	1016.020	0	460	1105	2857	4205	501	-17.0	200	-1	0	1016.782	-1	
127	0	1022.127	0	730	2058	2857	4205	501	-15.5	200	-1	1	1022.833	-1	
128	0	1027.181	0	460	1105	2857	4205	701	-12.0	200	0	0	1027.873	1	
129	0	1034.014	0	730	2058	2857	4205	551	-14.0	200	1	1	1034.295	1	
130	0	1039.262	0	730	2058	2857	4205	501	-14.0	200	1	1	1040.090	1	
131	0	1045.561	0	460	1105	2857	4205	951	-12.0	200	0	1	1046.342	0	
132	1	1065.361	0	460	1105	2857	4205	951	-12.0	200	0	0	1066.467	1	
133	0	1072.886	0	730	2058	2857	4205	601	-14.0	200	1	1	1073.252	1	
134	0	1081.156	0	730	2058	2857	4205	1001	-14.0	200	1	1	1081.957	1	
135	0	1088.279	0	460	1105	2857	4205	801	-12.0	200	0	0	1088.941	1	
136	0	1093.470	0	730	2058	2857	4205	551	-14.0	200	1	1	1094.287	1	
137	0	1100.937	0	730	2058	2857	4205	701	-14.0	200	1	1	1101.875	1	
138	0	1105.610	0	460	1105	2857	4205	501	-17.0	200	-1	0	1106.331	-1	
139	0	1113.406	0	460	1105	2857	4205	901	-12.0	200	0	0	1113.772	1	
140	0	1119.875	0	730	2058	2857	4205	501	-15.5	200	-1	1	1120.555	-1	
141	0	1124.824	0	460	1105	2857	4205	851	-12.0	200	0	0	1126.466	1	
142	0	1132.817	0	730	2058	2857	4205	751	-14.0	200	1	1	1133.613	1	
143	0	1142.312	0	460	1105	2857	4205	951	-12.0	200	0	0	1143.054	1	
144	0	1147.517	0	460	1105	2857	4205	551	-12.0	200	0	0	1148.236	1	
145	0	1154.141	0	730	2058	2857	4205	951	-14.0	200	1	1	1155.465	1	
146	0	1161.181	0	460	1105	2857	4205	651	-12.0	200	0	0	1162.043	1	
147	0	1167.014	0	460	1105	2857	4205	501	-17.0	200	-1	1	1167.706	-1	
