Trial	CorrectionTrial?	StartTime	CenterReward?	F1	F2	F3	F4	HoldTime	Atten	Pitch	Side	Response	RespTime	Correct	
1	0	3.1327	1	460	1105	2857	4205	851	-10.0	200	0	0	4.5660	1	
2	0	8.9100	0	460	1105	2857	4205	551	-7.0	200	0	0	9.4283	1	
3	0	16.3892	0	730	2058	2857	4205	601	-7.0	200	1	1	17.2389	1	
4	0	40.1675	0	730	2058	2857	4205	651	-10.0	200	1	0	40.6882	0	
5	1	47.3234	1	730	2058	2857	4205	651	-10.0	200	1	1	47.9421	1	
6	0	56.5561	0	460	1105	2857	4205	901	-7.0	200	0	0	57.7652	1	
7	0	63.0044	0	730	2058	2857	4205	1001	-10.0	200	1	1	63.4824	1	
8	0	86.8642	0	730	2058	2857	4205	951	-7.0	200	1	1	87.4902	1	
9	0	98.2029	0	460	1105	2857	4205	501	-7.0	200	0	0	98.8077	1	
10	0	104.0242	0	730	2058	2857	4205	501	-10.0	NaN	-1	0	104.5256	-1	
11	0	109.2316	0	730	2058	2857	4205	601	-7.0	200	1	0	109.7272	0	
12	1	116.9408	0	730	2058	2857	4205	601	-7.0	200	1	1	117.3336	1	
13	0	132.0927	0	460	1105	2857	4205	901	-7.0	200	0	0	132.5539	1	
14	0	140.6846	0	460	1105	2857	4205	801	-10.0	200	0	0	141.0132	1	
15	0	145.9749	0	460	1105	2857	4205	501	-10.0	NaN	-1	0	146.3443	-1	
16	0	152.5698	0	730	2058	2857	4205	851	-10.0	200	1	0	153.1597	0	
17	1	160.4283	0	730	2058	2857	4205	851	-10.0	200	1	1	160.8718	1	
18	0	187.2206	0	460	1105	2857	4205	951	-7.0	200	0	0	187.6033	1	
19	0	192.9226	1	730	2058	2857	4205	751	-10.0	200	1	1	193.7246	1	
20	0	205.4173	0	460	1105	2857	4205	501	-10.0	NaN	-1	0	206.0268	-1	
21	0	213.5885	0	460	1105	2857	4205	651	-7.0	200	0	0	214.3365	1	
22	0	219.1844	1	460	1105	2857	4205	651	-10.0	200	0	0	219.4701	1	
23	0	225.1402	0	730	2058	2857	4205	551	-10.0	200	1	0	229.2234	0	
24	1	236.5636	0	730	2058	2857	4205	551	-10.0	200	1	1	237.0424	1	
25	0	249.2785	0	730	2058	2857	4205	701	-7.0	200	1	1	250.0585	1	
26	0	260.7704	0	730	2058	2857	4205	501	-10.0	NaN	-1	0	261.3954	-1	
27	0	272.9104	0	730	2058	2857	4205	1001	-7.0	200	1	1	273.3507	1	
28	0	283.2402	0	730	2058	2857	4205	801	-10.0	200	1	1	283.7744	1	
29	0	305.5862	0	460	1105	2857	4205	951	-10.0	200	0	0	305.9504	1	
30	0	326.7450	1	730	2058	2857	4205	851	-10.0	200	1	1	328.4656	1	
31	0	342.2686	0	460	1105	2857	4205	901	-7.0	200	0	0	343.2795	1	
32	0	348.2376	0	460	1105	2857	4205	501	-10.0	NaN	-1	0	348.7385	-1	
33	0	354.0528	0	460	1105	2857	4205	1001	-10.0	200	0	0	354.5002	1	
34	0	359.0139	0	730	2058	2857	4205	501	-10.0	NaN	-1	0	359.6370	-1	
35	0	365.4004	1	730	2058	2857	4205	601	-7.0	200	1	0	366.2701	0	
36	1	372.5873	1	730	2058	2857	4205	601	-7.0	200	1	1	373.6644	1	
37	0	384.9461	0	460	1105	2857	4205	701	-7.0	200	0	0	387.2255	1	
38	0	392.0024	0	460	1105	2857	4205	501	-10.0	NaN	-1	0	392.5598	-1	
39	0	397.7313	0	730	2058	2857	4205	751	-7.0	200	1	1	399.0056	1	
40	0	402.4749	0	460	1105	2857	4205	501	-7.0	200	0	0	402.9390	1	
41	0	407.8326	0	730	2058	2857	4205	501	-10.0	NaN	-1	0	408.3493	-1	
42	0	412.6977	0	730	2058	2857	4205	651	-7.0	200	1	0	413.3023	0	
43	1	419.7419	0	730	2058	2857	4205	651	-7.0	200	1	1	420.5781	1	
44	0	438.2595	0	460	1105	2857	4205	801	-10.0	200	0	0	438.7455	1	
45	0	451.3751	0	460	1105	2857	4205	901	-7.0	200	0	0	451.6862	1	
46	0	456.6897	0	460	1105	2857	4205	851	-10.0	200	0	0	457.0156	1	
47	0	465.5982	0	460	1105	2857	4205	751	-10.0	200	0	0	465.9590	1	
48	0	470.6792	0	730	2058	2857	4205	651	-10.0	200	1	1	471.8686	1	
49	0	487.0496	0	730	2058	2857	4205	501	-7.0	200	1	1	488.0945	1	
50	0	504.3905	0	730	2058	2857	4205	951	-10.0	200	1	1	505.4270	1	
51	0	514.3365	0	730	2058	2857	4205	501	-10.0	NaN	-1	0	514.8002	-1	
52	0	519.6666	0	460	1105	2857	4205	501	-10.0	NaN	-1	0	520.1808	-1	
53	0	535.8024	0	460	1105	2857	4205	1001	-7.0	200	0	0	536.2392	1	
54	0	541.0480	0	730	2058	2857	4205	801	-10.0	200	1	1	542.1579	1	
55	0	547.6108	0	460	1105	2857	4205	651	-7.0	200	0	0	548.1107	1	
56	0	556.2445	1	460	1105	2857	4205	601	-7.0	200	0	0	556.8061	1	
57	0	560.9793	0	730	2058	2857	4205	501	-10.0	NaN	-1	0	561.9371	-1	
58	0	566.5277	0	460	1105	2857	4205	501	-10.0	NaN	-1	0	568.2028	-1	
59	0	573.6622	0	730	2058	2857	4205	851	-10.0	200	1	1	574.6733	1	
60	0	588.2772	0	730	2058	2857	4205	901	-10.0	200	1	0	588.8711	0	
61	1	595.9016	0	730	2058	2857	4205	901	-10.0	200	1	1	596.5552	1	
62	0	607.9882	0	460	1105	2857	4205	801	-10.0	200	0	0	608.5358	1	
63	0	613.1644	0	730	2058	2857	4205	501	-10.0	NaN	-1	0	613.5453	-1	
64	0	618.7645	0	730	2058	2857	4205	951	-10.0	200	1	1	619.9532	1	
65	0	639.1651	0	460	1105	2857	4205	1001	-10.0	200	0	0	639.6154	1	
66	0	646.8121	0	460	1105	2857	4205	501	-10.0	NaN	-1	0	647.3552	-1	
67	0	652.4109	0	460	1105	2857	4205	651	-7.0	200	0	0	653.0031	1	
68	0	657.8269	1	730	2058	2857	4205	801	-7.0	200	1	0	658.8029	0	
69	1	666.5605	0	730	2058	2857	4205	801	-7.0	200	1	0	667.3507	0	
70	1	674.1101	0	730	2058	2857	4205	801	-7.0	200	1	1	674.8115	1	
71	0	684.4060	1	730	2058	2857	4205	751	-7.0	200	1	1	685.4867	1	
72	0	694.4919	0	460	1105	2857	4205	601	-7.0	200	0	0	695.4573	1	
73	0	700.9352	1	730	2058	2857	4205	951	-7.0	200	1	1	706.4809	1	
74	0	716.1337	0	730	2058	2857	4205	501	-10.0	NaN	-1	0	716.8437	-1	
75	0	721.8319	0	460	1105	2857	4205	501	-10.0	NaN	-1	0	722.5157	-1	
76	0	727.6612	0	730	2058	2857	4205	501	-7.0	200	1	1	728.6899	1	
77	0	743.8260	0	460	1105	2857	4205	851	-10.0	200	0	0	744.1599	1	
78	0	754.8185	0	730	2058	2857	4205	801	-10.0	200	1	1	755.6420	1	
79	0	770.6022	0	460	1105	2857	4205	701	-7.0	200	0	0	771.1783	1	
80	0	776.6806	0	730	2058	2857	4205	651	-7.0	200	1	1	777.4278	1	
81	0	791.2678	0	730	2058	2857	4205	901	-10.0	200	1	1	792.3810	1	
82	0	794.7190	0	460	1105	2857	4205	551	-10.0	200	0	0	795.8771	1	
83	0	800.8793	0	730	2058	2857	4205	851	-7.0	200	1	1	802.1769	1	
84	0	816.8067	0	730	2058	2857	4205	501	-10.0	NaN	-1	0	817.5668	-1	
85	0	825.4526	1	460	1105	2857	4205	751	-7.0	200	0	0	825.9223	1	
86	0	829.7808	1	460	1105	2857	4205	601	-7.0	200	0	0	834.0179	1	
87	0	839.4588	0	460	1105	2857	4205	501	-10.0	NaN	-1	0	840.1650	-1	
88	0	855.2183	0	730	2058	2857	4205	801	-7.0	200	1	1	856.1421	1	
89	0	865.8289	0	460	1105	2857	4205	501	-7.0	200	0	0	866.3457	1	
90	0	880.8657	0	460	1105	2857	4205	901	-10.0	200	0	0	881.2119	1	
91	0	885.3012	0	460	1105	2857	4205	501	-10.0	NaN	-1	0	885.7774	-1	
92	0	894.6559	0	460	1105	2857	4205	1001	-10.0	200	0	0	895.0733	1	
93	0	905.5773	0	730	2058	2857	4205	651	-7.0	200	1	1	906.0998	1	
94	0	909.6462	0	730	2058	2857	4205	601	-7.0	200	1	1	910.6466	1	
95	0	920.5590	0	730	2058	2857	4205	501	-10.0	NaN	-1	0	921.3143	-1	
96	0	926.3702	0	730	2058	2857	4205	501	-10.0	NaN	-1	0	926.8920	-1	
97	0	931.7053	1	730	2058	2857	4205	701	-7.0	200	1	0	932.7915	0	
98	1	938.5406	1	730	2058	2857	4205	701	-7.0	200	1	1	942.9572	1	
99	0	950.0863	0	460	1105	2857	4205	801	-10.0	200	0	0	950.7662	1	
100	0	956.1779	0	730	2058	2857	4205	1001	-7.0	200	1	1	957.6466	1	
101	0	973.3601	0	460	1105	2857	4205	751	-7.0	200	0	0	973.8102	1	
102	0	978.6040	0	460	1105	2857	4205	501	-10.0	NaN	-1	0	979.3463	-1	
103	0	984.5161	0	730	2058	2857	4205	951	-7.0	200	1	1	995.8381	1	
104	0	998.6075	0	460	1105	2857	4205	601	-7.0	200	0	0	999.5674	1	
105	0	1003.5654	0	730	2058	2857	4205	501	-7.0	200	1	0	1004.6906	0	
106	1	1012.3151	0	730	2058	2857	4205	501	-7.0	200	1	1	1013.3167	1	
107	0	1026.4746	0	460	1105	2857	4205	851	-10.0	200	0	0	1027.0043	1	
108	0	1032.0679	0	460	1105	2857	4205	551	-7.0	200	0	0	1032.8552	1	
109	0	1038.3694	0	460	1105	2857	4205	501	-10.0	NaN	-1	0	1038.7717	-1	
110	0	1046.9087	0	730	2058	2857	4205	501	-10.0	NaN	-1	0	1047.5502	-1	
111	0	1052.9645	0	460	1105	2857	4205	1001	-10.0	200	0	0	1053.2957	1	
112	0	1058.6440	1	730	2058	2857	4205	551	-10.0	200	1	1	1059.9481	1	
113	0	1064.5522	1	730	2058	2857	4205	751	-10.0	200	1	1	1065.0798	1	
114	0	1079.6451	0	730	2058	2857	4205	501	-10.0	NaN	-1	0	1083.4907	-1	
115	0	1095.8041	0	460	1105	2857	4205	901	-10.0	200	0	0	1096.2083	1	
116	0	1101.1781	0	730	2058	2857	4205	601	-10.0	200	1	1	1113.9216	1	
117	0	1122.3446	0	730	2058	2857	4205	651	-7.0	200	1	0	1123.3756	0	
118	1	1129.3715	0	730	2058	2857	4205	651	-7.0	200	1	1	1130.1670	1	
119	0	1144.4297	0	460	1105	2857	4205	801	-7.0	200	0	0	1144.9519	1	
120	0	1150.1044	0	460	1105	2857	4205	501	-10.0	NaN	-1	0	1150.4441	-1	
121	0	1163.3123	0	730	2058	2857	4205	801	-10.0	200	1	1	1164.6405	1	
122	0	1175.5355	0	460	1105	2857	4205	901	-10.0	200	0	0	1176.0438	1	
123	0	1181.0831	0	460	1105	2857	4205	501	-10.0	NaN	-1	0	1181.8348	-1	
