Trial	CorrectionTrial?	StartTime	CenterReward?	F1	F2	F3	F4	HoldTime	Atten	Pitch	Side	Response	RespTime	Correct	
1	0	7.4753	0	730	2058	2857	4205	501	-17.0	200	1	1	7.8598	1	
2	0	12.8214	0	460	1105	2857	4205	1001	-9.0	200	0	1	13.1776	0	
3	1	19.2998	0	460	1105	2857	4205	1001	-9.0	200	0	0	19.4702	1	
4	0	28.5315	0	730	2058	2857	4205	851	-11.0	200	1	1	28.8158	1	
5	0	37.1399	0	460	1105	2857	4205	901	-15.0	200	0	1	37.4650	0	
6	1	45.7555	0	460	1105	2857	4205	901	-15.0	200	0	0	46.3278	1	
7	0	51.6418	0	460	1105	2857	4205	501	-20.0	200	-1	1	52.1820	-1	
8	0	64.6202	0	730	2058	2857	4205	651	-17.0	200	1	1	65.0521	1	
9	0	79.1508	0	460	1105	2857	4205	951	-9.0	200	0	0	79.4526	1	
10	0	91.1687	0	460	1105	2857	4205	501	-20.0	200	-1	1	92.0217	-1	
11	0	101.3909	0	460	1105	2857	4205	751	-9.0	200	0	0	101.6792	1	
12	0	108.8383	0	460	1105	2857	4205	851	-15.0	200	0	0	109.3812	1	
13	0	112.6185	0	730	2058	2857	4205	501	-18.5	200	-1	1	113.2912	-1	
14	0	118.2712	0	730	2058	2857	4205	801	-17.0	200	1	1	118.6167	1	
15	0	127.9648	0	460	1105	2857	4205	1001	-9.0	200	0	0	128.5231	1	
16	0	146.3937	1	730	2058	2857	4205	751	-17.0	200	1	1	146.7273	1	
17	0	152.6142	0	730	2058	2857	4205	701	-11.0	200	1	1	156.2293	1	
18	0	163.4296	0	730	2058	2857	4205	951	-11.0	200	1	1	164.7017	1	
19	0	169.7832	0	460	1105	2857	4205	501	-20.0	200	-1	1	170.8126	-1	
20	0	183.5302	0	460	1105	2857	4205	901	-15.0	200	0	0	184.3221	1	
21	0	190.8166	0	730	2058	2857	4205	501	-18.5	200	-1	1	191.2175	-1	
22	0	201.6119	0	730	2058	2857	4205	951	-11.0	200	1	1	201.9716	1	
23	0	207.2274	0	730	2058	2857	4205	501	-17.0	200	1	1	207.8471	1	
24	0	212.8827	0	460	1105	2857	4205	551	-9.0	200	0	0	213.2758	1	
25	0	222.4790	0	460	1105	2857	4205	701	-15.0	200	0	0	222.9356	1	
26	0	236.6667	0	730	2058	2857	4205	851	-11.0	200	1	1	236.9987	1	
27	0	241.6457	0	460	1105	2857	4205	601	-9.0	200	0	0	241.9936	1	
28	0	252.2662	0	460	1105	2857	4205	651	-15.0	200	0	0	252.5816	1	
29	0	258.4123	0	460	1105	2857	4205	501	-20.0	200	-1	1	258.7390	-1	
30	0	263.7301	0	730	2058	2857	4205	501	-18.5	200	-1	1	264.1143	-1	
31	0	270.2864	0	460	1105	2857	4205	901	-9.0	200	0	0	270.7026	1	
32	0	280.6336	0	730	2058	2857	4205	951	-11.0	200	1	1	280.9240	1	
33	0	296.1298	0	730	2058	2857	4205	1001	-17.0	200	1	1	296.3584	1	
34	0	306.0002	0	460	1105	2857	4205	751	-15.0	200	0	0	306.4310	1	
35	0	317.2777	0	730	2058	2857	4205	601	-11.0	200	1	1	317.6444	1	
36	0	322.3749	0	730	2058	2857	4205	501	-17.0	200	1	1	322.7425	1	
37	0	334.8482	0	460	1105	2857	4205	801	-9.0	200	0	0	335.2146	1	
38	0	339.5803	0	730	2058	2857	4205	501	-18.5	200	-1	1	339.9160	-1	
39	0	345.3290	0	460	1105	2857	4205	501	-20.0	200	-1	1	346.0551	-1	
40	0	358.1303	0	460	1105	2857	4205	701	-9.0	200	0	0	358.4697	1	
41	0	378.5819	0	730	2058	2857	4205	901	-17.0	200	1	1	378.9346	1	
42	0	384.5443	0	460	1105	2857	4205	651	-9.0	200	0	0	384.9513	1	
43	0	390.4905	0	730	2058	2857	4205	501	-18.5	200	-1	1	390.8609	-1	
44	0	395.8880	0	460	1105	2857	4205	501	-20.0	200	-1	1	396.7856	-1	
45	0	403.9388	0	460	1105	2857	4205	851	-15.0	200	0	0	404.1726	1	
46	0	409.2475	0	730	2058	2857	4205	601	-17.0	200	1	1	409.5777	1	
47	0	415.5494	0	730	2058	2857	4205	751	-17.0	200	1	1	415.9316	1	
48	0	428.0339	1	730	2058	2857	4205	951	-11.0	200	1	1	428.4021	1	
49	0	433.2823	0	460	1105	2857	4205	551	-9.0	200	0	1	438.6048	0	
50	1	446.5568	0	460	1105	2857	4205	551	-9.0	200	0	0	446.8847	1	
51	0	461.3132	0	730	2058	2857	4205	1001	-11.0	200	1	1	461.9332	1	
52	0	466.7666	0	730	2058	2857	4205	501	-18.5	200	-1	1	467.5720	-1	
53	0	471.9099	0	460	1105	2857	4205	501	-20.0	200	-1	1	472.7112	-1	
54	0	477.6784	0	730	2058	2857	4205	901	-11.0	200	1	1	478.0886	1	
55	0	485.8773	0	730	2058	2857	4205	651	-17.0	200	1	1	486.3347	1	
56	0	491.4413	0	460	1105	2857	4205	601	-9.0	200	0	0	492.4457	1	
57	0	499.4986	0	460	1105	2857	4205	501	-15.0	200	0	1	499.9149	0	
58	1	505.4680	1	460	1105	2857	4205	501	-15.0	200	0	0	506.1381	1	
59	0	513.7187	0	460	1105	2857	4205	551	-15.0	200	0	1	517.7385	0	
60	1	523.7654	0	460	1105	2857	4205	551	-15.0	200	0	0	524.1466	1	
61	0	531.6560	0	460	1105	2857	4205	851	-15.0	200	0	0	532.0447	1	
62	0	546.4957	1	730	2058	2857	4205	801	-17.0	200	1	1	547.0490	1	
63	0	551.0266	0	460	1105	2857	4205	751	-15.0	200	0	1	554.4093	0	
64	1	562.6310	0	460	1105	2857	4205	751	-15.0	200	0	0	562.8203	1	
65	0	571.0635	0	730	2058	2857	4205	701	-17.0	200	1	1	571.5279	1	
66	0	576.5638	1	460	1105	2857	4205	701	-15.0	200	0	0	577.0897	1	
67	0	582.2831	0	730	2058	2857	4205	951	-17.0	200	1	0	586.1673	0	
68	1	593.1557	0	730	2058	2857	4205	951	-17.0	200	1	1	593.4871	1	
69	0	598.5984	0	730	2058	2857	4205	501	-18.5	200	-1	1	599.1132	-1	
70	0	604.3340	0	460	1105	2857	4205	501	-20.0	200	-1	1	605.4551	-1	
71	0	610.7563	0	730	2058	2857	4205	751	-11.0	200	1	1	611.1183	1	
72	0	616.5832	0	730	2058	2857	4205	851	-17.0	200	1	1	617.0585	1	
73	0	622.0756	0	730	2058	2857	4205	501	-17.0	200	1	0	622.6867	0	
74	1	628.7522	0	730	2058	2857	4205	501	-17.0	200	1	1	629.2642	1	
75	0	644.8158	0	460	1105	2857	4205	901	-9.0	200	0	0	645.1055	1	
76	0	651.2509	0	460	1105	2857	4205	601	-15.0	200	0	1	652.2818	0	
77	1	658.3391	0	460	1105	2857	4205	601	-15.0	200	0	0	658.7462	1	
78	0	664.0722	0	730	2058	2857	4205	501	-18.5	200	-1	1	664.5648	-1	
79	0	669.6900	0	460	1105	2857	4205	501	-20.0	200	-1	1	670.2795	-1	
80	0	674.4936	0	460	1105	2857	4205	651	-15.0	200	0	0	674.8310	1	
81	0	686.6910	0	460	1105	2857	4205	951	-9.0	200	0	0	687.0646	1	
82	0	693.0457	1	730	2058	2857	4205	851	-11.0	200	1	1	693.4149	1	
83	0	697.9074	0	730	2058	2857	4205	501	-18.5	200	-1	1	702.2322	-1	
84	0	714.2609	0	460	1105	2857	4205	1001	-15.0	200	0	0	714.5295	1	
85	0	719.7398	0	460	1105	2857	4205	751	-9.0	200	0	0	720.2670	1	
86	0	727.2772	1	730	2058	2857	4205	501	-11.0	200	1	1	727.7115	1	
87	0	733.0226	0	460	1105	2857	4205	501	-20.0	200	-1	1	737.1916	-1	
88	0	742.3420	0	730	2058	2857	4205	601	-11.0	200	1	1	742.8142	1	
89	0	754.0081	0	730	2058	2857	4205	901	-17.0	200	1	1	754.3765	1	
90	0	762.8750	0	460	1105	2857	4205	1001	-9.0	200	0	0	763.2407	1	
91	0	768.5061	0	730	2058	2857	4205	501	-18.5	200	-1	1	768.9616	-1	
92	0	778.0674	0	730	2058	2857	4205	851	-11.0	200	1	1	778.4430	1	
93	0	783.2624	0	730	2058	2857	4205	601	-17.0	200	1	1	783.7472	1	
94	0	789.4405	0	460	1105	2857	4205	951	-15.0	200	0	0	789.9210	1	
95	0	795.4880	0	460	1105	2857	4205	551	-15.0	200	0	0	796.4685	1	
96	0	802.3101	0	460	1105	2857	4205	501	-20.0	200	-1	0	803.4486	-1	
97	0	810.0436	0	460	1105	2857	4205	501	-20.0	200	-1	1	810.5903	-1	
98	0	815.1526	0	460	1105	2857	4205	501	-15.0	200	0	0	815.7121	1	
99	0	823.7347	0	460	1105	2857	4205	601	-15.0	200	0	0	824.5882	1	
100	0	834.2186	0	460	1105	2857	4205	1001	-9.0	200	0	1	834.5963	0	
101	1	841.0726	0	460	1105	2857	4205	1001	-9.0	200	0	0	841.4634	1	
102	0	850.8853	0	730	2058	2857	4205	701	-11.0	200	1	1	851.1561	1	
103	0	855.7484	0	730	2058	2857	4205	501	-18.5	200	-1	1	857.1367	-1	
104	0	873.1401	0	730	2058	2857	4205	901	-11.0	200	1	1	873.5600	1	
105	0	878.3547	0	730	2058	2857	4205	951	-17.0	200	1	1	878.6667	1	
106	0	888.2563	0	460	1105	2857	4205	751	-9.0	200	0	0	888.7105	1	
107	0	892.4986	0	730	2058	2857	4205	551	-11.0	200	1	1	892.8962	1	
108	0	901.4436	0	460	1105	2857	4205	801	-9.0	200	0	0	901.7897	1	
109	0	906.2484	0	730	2058	2857	4205	501	-18.5	200	-1	1	906.6249	-1	
110	0	910.9860	0	460	1105	2857	4205	501	-20.0	200	-1	1	912.4155	-1	
111	0	928.5926	0	730	2058	2857	4205	851	-17.0	200	1	0	929.0279	0	
112	1	935.1071	0	730	2058	2857	4205	851	-17.0	200	1	1	935.4401	1	
113	0	939.9765	0	730	2058	2857	4205	551	-17.0	200	1	1	940.4125	1	
114	0	945.5966	0	460	1105	2857	4205	701	-15.0	200	0	0	945.8792	1	
115	0	950.6222	0	730	2058	2857	4205	501	-18.5	200	-1	1	951.1185	-1	
116	0	954.9060	0	730	2058	2857	4205	501	-11.0	200	1	1	955.3872	1	
117	0	964.8711	0	730	2058	2857	4205	1001	-11.0	200	1	1	965.2054	1	
118	0	970.3446	0	460	1105	2857	4205	751	-15.0	200	0	0	970.6395	1	
119	0	976.9534	1	460	1105	2857	4205	951	-15.0	200	0	1	977.1768	0	
120	1	985.0324	0	460	1105	2857	4205	951	-15.0	200	0	0	985.5059	1	
121	0	993.2717	0	460	1105	2857	4205	501	-20.0	200	-1	0	994.8908	-1	
122	0	1002.0068	0	460	1105	2857	4205	501	-9.0	200	0	0	1002.5035	1	
123	0	1008.1681	0	730	2058	2857	4205	601	-17.0	200	1	1	1008.5062	1	
124	0	1014.0609	0	460	1105	2857	4205	1001	-15.0	200	0	0	1014.4218	1	
125	0	1023.0117	0	730	2058	2857	4205	701	-17.0	200	1	1	1023.4107	1	
126	0	1028.4367	0	460	1105	2857	4205	651	-9.0	200	0	0	1028.7455	1	
127	0	1035.7175	0	730	2058	2857	4205	901	-11.0	200	1	1	1036.0391	1	
128	0	1050.0104	1	730	2058	2857	4205	751	-11.0	200	1	1	1050.9429	1	
129	0	1054.2870	0	460	1105	2857	4205	851	-15.0	200	0	1	1057.8687	0	
