Trial	CorrectionTrial?	StartTime	CenterReward?	F1	F2	F3	F4	HoldTime	Atten	Pitch	Side	Response	RespTime	Correct	
1	0	10.3647	0	460	1105	2857	4205	501	-9.0	200	0	1	11.0449	0	
2	1	17.7431	0	460	1105	2857	4205	501	-9.0	200	0	1	18.6472	0	
3	1	27.6499	0	460	1105	2857	4205	501	-9.0	200	0	0	28.6435	1	
4	0	41.1658	0	730	2058	2857	4205	651	-11.0	200	1	1	41.6854	1	
5	0	47.5682	0	730	2058	2857	4205	801	-17.0	200	1	1	47.9126	1	
6	0	53.5992	0	460	1105	2857	4205	551	-15.0	200	0	1	54.4698	0	
7	1	60.4418	0	460	1105	2857	4205	551	-15.0	200	0	0	61.7295	1	
8	0	68.1758	1	460	1105	2857	4205	951	-15.0	200	0	0	68.3677	1	
9	0	74.2250	0	730	2058	2857	4205	751	-11.0	200	1	1	74.5652	1	
10	0	83.9059	0	460	1105	2857	4205	851	-9.0	200	0	0	84.9607	1	
11	0	92.0283	0	730	2058	2857	4205	601	-11.0	200	1	1	92.7332	1	
12	0	98.0883	0	730	2058	2857	4205	501	-18.5	200	-1	1	98.6304	-1	
13	0	104.0325	0	460	1105	2857	4205	501	-9.0	200	0	0	105.1892	1	
14	0	119.4220	0	730	2058	2857	4205	901	-11.0	200	1	1	119.6818	1	
15	0	125.0878	0	460	1105	2857	4205	651	-15.0	200	0	0	125.5805	1	
16	0	131.3231	0	460	1105	2857	4205	501	-20.0	200	-1	0	134.3785	-1	
17	0	142.7911	0	730	2058	2857	4205	701	-17.0	200	1	1	143.2315	1	
18	0	155.8645	0	730	2058	2857	4205	801	-17.0	200	1	0	157.1205	0	
19	1	168.0034	0	730	2058	2857	4205	801	-17.0	200	1	1	168.3994	1	
20	0	173.4649	0	460	1105	2857	4205	551	-15.0	200	0	0	174.2668	1	
21	0	191.8759	0	460	1105	2857	4205	601	-15.0	200	0	0	192.8461	1	
22	0	198.4726	0	460	1105	2857	4205	751	-9.0	200	0	0	198.8971	1	
23	0	208.6238	0	730	2058	2857	4205	601	-17.0	200	1	1	208.9135	1	
24	0	213.5244	0	460	1105	2857	4205	501	-20.0	200	-1	1	214.9258	-1	
25	0	218.3622	0	730	2058	2857	4205	501	-18.5	200	-1	1	218.7646	-1	
26	0	223.9053	0	730	2058	2857	4205	501	-11.0	200	1	1	224.5873	1	
27	0	237.0344	0	460	1105	2857	4205	751	-15.0	200	0	0	237.6773	1	
28	0	243.7569	0	460	1105	2857	4205	501	-20.0	200	-1	1	244.7475	-1	
29	0	249.9614	0	460	1105	2857	4205	551	-9.0	200	0	0	250.9655	1	
30	0	256.8306	0	730	2058	2857	4205	801	-11.0	200	1	1	257.3093	1	
31	0	263.5774	0	730	2058	2857	4205	501	-18.5	200	-1	1	264.4127	-1	
32	0	272.7401	0	730	2058	2857	4205	651	-11.0	200	1	1	273.6031	1	
33	0	278.6799	0	460	1105	2857	4205	601	-15.0	200	0	0	279.0113	1	
34	0	287.8504	0	730	2058	2857	4205	551	-17.0	200	1	1	288.4342	1	
35	0	299.6897	0	730	2058	2857	4205	501	-18.5	200	-1	1	300.3532	-1	
36	0	310.8784	0	460	1105	2857	4205	751	-9.0	200	0	0	311.7873	1	
37	0	329.7643	0	460	1105	2857	4205	701	-9.0	200	0	1	330.2902	0	
38	1	337.9004	0	460	1105	2857	4205	701	-9.0	200	0	0	338.5792	1	
39	0	342.9284	0	460	1105	2857	4205	501	-9.0	200	0	0	343.7042	1	
40	0	349.2644	0	460	1105	2857	4205	501	-20.0	200	-1	1	349.6842	-1	
41	0	360.7749	0	730	2058	2857	4205	801	-17.0	200	1	1	361.1024	1	
42	0	374.3845	0	730	2058	2857	4205	1001	-17.0	200	1	1	374.6866	1	
43	0	379.4646	0	730	2058	2857	4205	651	-17.0	200	1	0	380.5911	0	
44	1	389.4716	0	730	2058	2857	4205	651	-17.0	200	1	1	390.1510	1	
45	0	395.1615	1	730	2058	2857	4205	551	-11.0	200	1	1	396.4232	1	
46	0	402.4415	0	730	2058	2857	4205	1001	-11.0	200	1	1	403.1550	1	
47	0	408.7303	0	460	1105	2857	4205	651	-15.0	200	0	0	409.7735	1	
48	0	419.8298	0	730	2058	2857	4205	851	-17.0	200	1	1	420.1154	1	
49	0	426.1192	0	730	2058	2857	4205	501	-18.5	200	-1	0	428.2021	-1	
50	0	432.9532	0	460	1105	2857	4205	701	-9.0	200	0	0	434.5053	1	
51	0	449.4408	0	460	1105	2857	4205	501	-20.0	200	-1	1	450.9798	-1	
52	0	455.7655	0	460	1105	2857	4205	801	-9.0	200	0	0	456.7705	1	
53	0	460.8832	0	460	1105	2857	4205	901	-9.0	200	0	0	461.3965	1	
54	0	468.9850	0	730	2058	2857	4205	501	-11.0	200	1	1	469.5137	1	
55	0	473.6976	0	460	1105	2857	4205	1001	-9.0	200	0	0	474.2209	1	
56	0	479.4453	0	730	2058	2857	4205	751	-11.0	200	1	1	479.8797	1	
57	0	487.0359	0	460	1105	2857	4205	551	-15.0	200	0	1	489.0824	0	
58	1	497.7701	0	460	1105	2857	4205	551	-15.0	200	0	0	498.7780	1	
59	0	504.2160	0	460	1105	2857	4205	501	-20.0	200	-1	0	505.3488	-1	
60	0	510.5841	0	730	2058	2857	4205	501	-18.5	200	-1	1	511.2650	-1	
61	0	516.2072	0	730	2058	2857	4205	651	-17.0	200	1	1	516.4996	1	
62	0	521.5603	0	460	1105	2857	4205	701	-15.0	200	0	0	523.3020	1	
63	0	530.6770	0	730	2058	2857	4205	501	-18.5	200	-1	1	531.3065	-1	
64	0	546.4560	0	730	2058	2857	4205	851	-17.0	200	1	1	547.0109	1	
65	0	551.3111	0	460	1105	2857	4205	501	-20.0	200	-1	1	553.3695	-1	
66	0	559.3329	0	730	2058	2857	4205	701	-17.0	200	1	1	559.8516	1	
67	0	567.4227	0	730	2058	2857	4205	951	-17.0	200	1	1	568.0389	1	
68	0	578.1610	0	460	1105	2857	4205	851	-9.0	200	0	0	578.5274	1	
69	0	587.0684	0	460	1105	2857	4205	901	-15.0	200	0	0	588.1043	1	
70	0	592.7476	0	730	2058	2857	4205	501	-18.5	200	-1	1	593.4605	-1	
71	0	598.0599	0	460	1105	2857	4205	501	-9.0	200	0	0	599.2286	1	
72	0	606.6132	0	730	2058	2857	4205	601	-11.0	200	1	1	607.3992	1	
73	0	613.5033	0	460	1105	2857	4205	751	-15.0	200	0	0	613.9129	1	
74	0	620.9279	0	730	2058	2857	4205	801	-17.0	200	1	1	621.2215	1	
75	0	631.8777	0	730	2058	2857	4205	1001	-11.0	200	1	1	632.2569	1	
76	0	636.9333	0	460	1105	2857	4205	801	-15.0	200	0	0	637.3256	1	
77	0	644.9134	0	460	1105	2857	4205	501	-20.0	200	-1	1	646.4028	-1	
78	0	649.1250	0	460	1105	2857	4205	501	-20.0	200	-1	1	650.2368	-1	
79	0	656.0273	0	460	1105	2857	4205	651	-15.0	200	0	0	657.8930	1	
80	0	664.5591	0	730	2058	2857	4205	501	-18.5	200	-1	1	665.5647	-1	
81	0	678.7749	0	730	2058	2857	4205	1001	-11.0	200	1	1	679.9696	1	
82	0	685.8187	1	730	2058	2857	4205	851	-17.0	200	1	1	686.2034	1	
83	0	692.1522	0	460	1105	2857	4205	601	-9.0	200	0	0	698.0401	1	
84	0	704.6305	0	730	2058	2857	4205	951	-17.0	200	1	1	705.1468	1	
85	0	713.9932	0	460	1105	2857	4205	751	-15.0	200	0	0	715.2275	1	
86	0	723.6516	0	460	1105	2857	4205	501	-20.0	200	-1	0	725.2767	-1	
87	0	729.9635	0	730	2058	2857	4205	701	-11.0	200	1	0	730.4575	0	
88	1	739.0942	1	730	2058	2857	4205	701	-11.0	200	1	1	742.0939	1	
89	0	755.7903	0	730	2058	2857	4205	1001	-11.0	200	1	1	756.1292	1	
90	0	761.8366	0	460	1105	2857	4205	501	-15.0	200	0	0	762.3621	1	
91	0	770.1417	0	460	1105	2857	4205	901	-15.0	200	0	0	770.5735	1	
92	0	782.3766	0	460	1105	2857	4205	951	-15.0	200	0	0	782.6140	1	
93	0	790.4767	1	730	2058	2857	4205	801	-11.0	200	1	1	791.0246	1	
94	0	794.1292	0	730	2058	2857	4205	501	-18.5	200	-1	1	799.6721	-1	
95	0	805.6685	0	730	2058	2857	4205	551	-11.0	200	1	1	806.5860	1	
96	0	811.1951	0	460	1105	2857	4205	501	-20.0	200	-1	0	811.9765	-1	
97	0	818.8778	0	730	2058	2857	4205	901	-17.0	200	1	0	820.1381	0	
98	1	830.4399	0	730	2058	2857	4205	901	-17.0	200	1	1	831.0392	1	
99	0	840.1908	0	460	1105	2857	4205	1001	-9.0	200	0	0	841.5340	1	
100	0	847.1595	0	730	2058	2857	4205	651	-17.0	200	1	1	847.8945	1	
101	0	858.0366	0	460	1105	2857	4205	701	-15.0	200	0	0	859.4524	1	
102	0	864.7873	0	460	1105	2857	4205	601	-15.0	200	0	0	865.6076	1	
103	0	875.0529	0	730	2058	2857	4205	501	-18.5	200	-1	1	875.8139	-1	
104	0	881.8169	0	460	1105	2857	4205	501	-9.0	200	0	0	882.9170	1	
105	0	887.6773	0	460	1105	2857	4205	951	-15.0	200	0	0	888.3343	1	
106	0	895.9690	0	730	2058	2857	4205	851	-11.0	200	1	0	897.1174	0	
107	1	907.6232	0	730	2058	2857	4205	851	-11.0	200	1	1	908.1823	1	
108	0	912.3051	0	460	1105	2857	4205	501	-20.0	200	-1	0	913.2355	-1	
109	0	920.6548	0	730	2058	2857	4205	501	-18.5	200	-1	0	921.4119	-1	
110	0	928.2308	0	460	1105	2857	4205	951	-15.0	200	0	0	928.4823	1	
111	0	935.5024	1	730	2058	2857	4205	551	-17.0	200	1	1	936.0790	1	
112	0	940.6753	0	730	2058	2857	4205	701	-11.0	200	1	1	945.9969	1	
113	0	951.0675	0	460	1105	2857	4205	901	-9.0	200	0	0	951.9666	1	
114	0	958.1545	0	460	1105	2857	4205	751	-15.0	200	0	0	958.6736	1	
115	0	966.7665	0	730	2058	2857	4205	651	-17.0	200	1	1	967.1919	1	
116	0	972.3585	0	460	1105	2857	4205	501	-20.0	200	-1	0	973.7138	-1	
117	0	980.4213	0	460	1105	2857	4205	801	-15.0	200	0	0	981.0379	1	
118	0	986.1060	0	730	2058	2857	4205	501	-18.5	200	-1	0	986.9130	-1	
119	0	994.1724	0	730	2058	2857	4205	651	-11.0	200	1	0	995.2675	0	
120	1	1001.1496	0	730	2058	2857	4205	651	-11.0	200	1	0	1002.2467	0	
121	1	1013.7336	0	730	2058	2857	4205	651	-11.0	200	1	1	1014.0656	1	
122	0	1018.1088	0	730	2058	2857	4205	551	-17.0	200	1	1	1018.9370	1	
123	0	1024.0078	0	460	1105	2857	4205	901	-15.0	200	0	0	1024.7446	1	
124	0	1031.1313	1	460	1105	2857	4205	601	-15.0	200	0	0	1032.5031	1	
125	0	1036.8391	0	460	1105	2857	4205	951	-9.0	200	0	0	1041.8119	1	
126	0	1050.4778	0	730	2058	2857	4205	501	-18.5	200	-1	1	1051.1858	-1	
127	0	1064.3315	0	730	2058	2857	4205	1001	-17.0	200	1	1	1064.8329	1	
128	0	1069.8500	0	730	2058	2857	4205	751	-11.0	200	1	0	1071.4790	0	
129	1	1082.0709	0	730	2058	2857	4205	751	-11.0	200	1	1	1083.0592	1	
130	0	1113.3804	0	730	2058	2857	4205	851	-17.0	200	1	1	1124.4173	1	
131	0	1128.9512	0	460	1105	2857	4205	501	-20.0	200	-1	1	1129.6882	-1	
132	0	1134.2602	0	730	2058	2857	4205	501	-18.5	200	-1	1	1137.7322	-1	
133	0	1142.5692	0	730	2058	2857	4205	901	-17.0	200	1	1	1143.2632	1	
134	0	1149.0178	0	460	1105	2857	4205	501	-20.0	200	-1	0	1150.5183	-1	
135	0	1154.7213	0	460	1105	2857	4205	601	-15.0	200	0	0	1155.2125	1	
136	0	1160.0446	0	730	2058	2857	4205	651	-17.0	200	1	0	1160.5981	0	
137	1	1168.9806	0	730	2058	2857	4205	651	-17.0	200	1	1	1169.2445	1	
138	0	1174.2115	0	460	1105	2857	4205	501	-15.0	200	0	0	1174.8323	1	
139	0	1186.7892	0	460	1105	2857	4205	851	-15.0	200	0	0	1187.7165	1	
140	0	1192.4222	0	730	2058	2857	4205	801	-17.0	200	1	1	1192.6648	1	
141	0	1196.9457	0	730	2058	2857	4205	501	-18.5	200	-1	1	1197.9385	-1	
142	0	1207.2085	0	730	2058	2857	4205	951	-11.0	200	1	1	1207.8209	1	
143	0	1212.1032	0	460	1105	2857	4205	501	-20.0	200	-1	0	1214.6955	-1	
144	0	1220.4502	0	730	2058	2857	4205	901	-17.0	200	1	1	1220.7267	1	
145	0	1226.8694	0	730	2058	2857	4205	651	-17.0	200	1	1	1227.5660	1	
146	0	1236.7984	0	460	1105	2857	4205	851	-15.0	200	0	0	1237.5039	1	
147	0	1243.5724	0	460	1105	2857	4205	751	-9.0	200	0	0	1244.4182	1	
148	0	1251.3331	0	460	1105	2857	4205	551	-9.0	200	0	0	1252.4827	1	
149	0	1262.4090	0	730	2058	2857	4205	501	-18.5	200	-1	1	1262.8509	-1	
150	0	1267.4272	0	730	2058	2857	4205	601	-11.0	200	1	1	1267.9519	1	
151	0	1273.1875	0	460	1105	2857	4205	501	-20.0	200	-1	0	1274.1843	-1	
152	0	1281.2610	0	730	2058	2857	4205	1001	-17.0	200	1	1	1281.6077	1	
