Trial	CorrectionTrial?	StartTime	CenterReward?	F1	F2	F3	F4	HoldTime	Atten	Pitch	Side	Response	RespTime	Correct	
1	0	5.1194	0	730	2058	2857	4205	591	-14.0	200	0	0	6.9289	1	
2	0	12.7909	0	730	2058	2857	4205	501	-14.0	263	0	0	14.3184	1	
3	0	23.7742	0	460	1105	2857	4205	741	-12.0	330	1	1	24.0721	1	
4	0	45.0689	0	730	2058	2857	4205	801	-14.0	459	0	0	46.0077	1	
5	0	51.8372	0	730	2058	2857	4205	681	-14.0	200	0	0	52.8028	1	
6	0	62.2674	0	460	1105	2857	4205	651	-12.0	330	1	1	62.5655	1	
7	0	78.7471	1	730	2058	2857	4205	561	-14.0	263	0	0	79.8773	1	
8	0	85.3033	0	460	1105	2857	4205	531	-12.0	149	1	0	88.5554	0	
9	1	97.5463	0	460	1105	2857	4205	531	-12.0	149	1	1	97.9664	1	
10	0	112.0276	1	460	1105	2857	4205	771	-12.0	459	1	0	115.6295	0	
11	1	128.0563	0	460	1105	2857	4205	771	-12.0	459	1	0	128.9243	0	
12	1	133.8401	1	460	1105	2857	4205	771	-12.0	459	1	1	134.1227	1	
13	0	146.2554	0	460	1105	2857	4205	801	-12.0	200	1	1	149.3642	1	
14	0	161.7760	0	730	2058	2857	4205	531	-14.0	459	0	0	163.6619	1	
15	0	167.5744	0	460	1105	2857	4205	771	-12.0	149	1	1	167.9225	1	
16	0	180.7145	0	730	2058	2857	4205	621	-14.0	263	0	0	183.4354	1	
17	0	187.8491	1	460	1105	2857	4205	591	-12.0	330	1	0	193.2037	0	
18	1	202.5169	0	460	1105	2857	4205	591	-12.0	330	1	1	202.8213	1	
19	0	214.9339	0	730	2058	2857	4205	651	-14.0	149	0	0	215.8581	1	
20	0	221.1400	0	730	2058	2857	4205	501	-14.0	263	0	0	221.7315	1	
21	0	228.0418	0	460	1105	2857	4205	711	-12.0	330	1	1	228.5039	1	
22	0	241.9103	0	730	2058	2857	4205	561	-14.0	459	0	0	243.5044	1	
23	0	250.1568	0	595	1582	2857	4205	501	-12.0	200	-1	0	251.1951	-1	
24	0	256.1331	0	460	1105	2857	4205	681	-12.0	200	1	0	256.7100	0	
25	1	263.2450	0	460	1105	2857	4205	681	-12.0	200	1	1	263.5593	1	
26	0	274.9624	0	460	1105	2857	4205	501	-12.0	263	1	0	277.6332	0	
27	1	283.0287	0	460	1105	2857	4205	501	-12.0	263	1	0	284.3284	0	
28	1	290.2455	0	460	1105	2857	4205	501	-12.0	263	1	0	291.6729	0	
29	1	298.0761	0	460	1105	2857	4205	501	-12.0	263	1	1	298.6511	1	
30	0	313.2382	0	730	2058	2857	4205	621	-14.0	330	0	0	314.3346	1	
31	0	322.4717	1	460	1105	2857	4205	801	-12.0	459	1	1	322.6575	1	
32	0	335.4775	0	730	2058	2857	4205	561	-14.0	149	0	0	339.4634	1	
33	0	345.6930	0	460	1105	2857	4205	741	-12.0	200	1	1	346.0515	1	
34	0	357.3788	0	730	2058	2857	4205	711	-14.0	149	0	0	358.8984	1	
35	0	369.4674	0	730	2058	2857	4205	651	-14.0	330	0	0	370.1511	1	
36	0	375.4242	0	460	1105	2857	4205	591	-12.0	263	1	1	375.6612	1	
37	0	388.0774	0	460	1105	2857	4205	531	-12.0	459	1	0	392.2169	0	
38	1	398.2810	0	460	1105	2857	4205	531	-12.0	459	1	1	398.5846	1	
39	0	410.6270	0	460	1105	2857	4205	771	-12.0	459	1	0	411.7670	0	
40	1	417.9174	0	460	1105	2857	4205	771	-12.0	459	1	1	418.3219	1	
41	0	429.9264	0	730	2058	2857	4205	501	-14.0	149	0	0	431.6098	1	
42	0	436.8495	1	595	1582	2857	4205	501	-12.0	200	-1	0	441.5799	-1	
43	0	446.1003	0	460	1105	2857	4205	621	-12.0	330	1	0	447.8624	0	
44	1	453.5815	0	460	1105	2857	4205	621	-12.0	330	1	1	453.9025	1	
45	0	465.0792	0	595	1582	2857	4205	501	-12.0	200	-1	0	466.2539	-1	
46	0	474.8244	0	730	2058	2857	4205	801	-14.0	149	0	0	475.3474	1	
47	0	482.8470	0	460	1105	2857	4205	711	-12.0	263	1	0	483.9833	0	
48	1	488.6573	0	460	1105	2857	4205	711	-12.0	263	1	1	488.8621	1	
49	0	499.4076	0	460	1105	2857	4205	741	-12.0	330	1	0	500.8161	0	
50	1	506.4428	0	460	1105	2857	4205	741	-12.0	330	1	1	507.2731	1	
51	0	519.2489	0	730	2058	2857	4205	531	-14.0	459	0	0	520.2906	1	
52	0	528.3712	0	730	2058	2857	4205	681	-14.0	200	0	0	529.2044	1	
53	0	536.9065	0	730	2058	2857	4205	741	-14.0	330	0	0	537.5230	1	
54	0	542.3580	0	460	1105	2857	4205	591	-12.0	200	1	1	542.7258	1	
55	0	553.3382	0	460	1105	2857	4205	801	-12.0	263	1	1	554.1119	1	
56	0	568.3864	0	730	2058	2857	4205	621	-14.0	459	0	0	569.1599	1	
57	0	580.3037	0	730	2058	2857	4205	711	-14.0	149	0	0	581.8213	1	
58	0	587.1439	0	460	1105	2857	4205	501	-12.0	330	1	1	587.9796	1	
59	0	600.4072	0	730	2058	2857	4205	531	-14.0	263	0	0	601.3188	1	
60	0	606.0519	0	460	1105	2857	4205	651	-12.0	200	1	1	606.4599	1	
61	0	621.5945	0	730	2058	2857	4205	681	-14.0	459	0	0	622.2623	1	
62	0	627.1366	0	460	1105	2857	4205	771	-12.0	149	1	1	627.5099	1	
63	0	637.8114	0	595	1582	2857	4205	501	-12.0	200	-1	0	638.9496	-1	
64	0	644.3568	0	460	1105	2857	4205	561	-12.0	330	1	1	644.9323	1	
65	0	650.7095	0	730	2058	2857	4205	621	-14.0	459	0	0	651.5237	1	
66	0	662.9623	0	730	2058	2857	4205	741	-14.0	263	0	0	663.8113	1	
67	0	668.6160	1	460	1105	2857	4205	501	-12.0	200	1	0	669.3676	0	
68	1	675.5525	0	460	1105	2857	4205	501	-12.0	200	1	1	675.8874	1	
69	0	682.6822	0	460	1105	2857	4205	591	-12.0	263	1	1	683.1971	1	
70	0	694.4979	0	460	1105	2857	4205	771	-12.0	459	1	1	694.8516	1	
71	0	702.4511	0	460	1105	2857	4205	711	-12.0	330	1	1	702.7653	1	
72	0	706.1504	0	730	2058	2857	4205	531	-14.0	149	0	0	707.1798	1	
73	0	721.0593	0	730	2058	2857	4205	801	-14.0	200	0	0	721.8403	1	
74	0	728.9647	0	730	2058	2857	4205	651	-14.0	149	0	0	729.5512	1	
75	0	733.5563	1	730	2058	2857	4205	531	-14.0	330	0	0	734.0281	1	
76	0	738.2982	1	730	2058	2857	4205	591	-14.0	200	0	0	741.7505	1	
77	0	746.9973	0	595	1582	2857	4205	501	-12.0	200	-1	0	747.7300	-1	
78	0	751.7791	0	460	1105	2857	4205	801	-12.0	263	1	1	752.2365	1	
79	0	755.8208	0	460	1105	2857	4205	561	-12.0	459	1	1	756.1727	1	
80	0	764.0245	0	460	1105	2857	4205	681	-12.0	200	1	1	764.2320	1	
81	0	767.2730	0	595	1582	2857	4205	501	-12.0	200	-1	1	767.6117	-1	
82	0	773.6735	0	730	2058	2857	4205	711	-14.0	330	0	0	774.9102	1	
83	0	779.7509	0	730	2058	2857	4205	771	-14.0	263	0	0	780.4477	1	
84	0	798.3017	0	730	2058	2857	4205	801	-14.0	330	0	0	799.1543	1	
85	0	805.0754	0	460	1105	2857	4205	651	-12.0	200	1	1	805.3441	1	
86	0	812.0834	0	730	2058	2857	4205	741	-14.0	149	0	0	812.7116	1	
87	0	816.3406	0	460	1105	2857	4205	561	-12.0	459	1	1	816.7485	1	
88	0	819.9587	0	460	1105	2857	4205	621	-12.0	263	1	1	820.4080	1	
89	0	824.2479	0	460	1105	2857	4205	501	-12.0	149	1	1	824.6284	1	
90	0	833.3896	0	730	2058	2857	4205	771	-14.0	459	0	0	833.9478	1	
91	0	837.2882	0	460	1105	2857	4205	681	-12.0	200	1	1	837.7268	1	
92	0	844.8719	0	460	1105	2857	4205	711	-12.0	263	1	1	845.1498	1	
93	0	849.2741	0	730	2058	2857	4205	531	-14.0	330	0	1	850.0281	0	
94	1	859.0872	0	730	2058	2857	4205	531	-14.0	330	0	0	860.0305	1	
95	0	864.0413	0	730	2058	2857	4205	621	-14.0	149	0	0	864.4400	1	
96	0	875.8243	0	730	2058	2857	4205	711	-14.0	459	0	0	876.4500	1	
97	0	880.0795	0	730	2058	2857	4205	561	-14.0	330	0	0	880.6022	1	
98	0	890.8396	1	460	1105	2857	4205	531	-12.0	200	1	1	891.3400	1	
99	0	894.2291	0	460	1105	2857	4205	591	-12.0	263	1	1	896.1211	1	
100	0	899.0928	0	730	2058	2857	4205	501	-14.0	200	0	1	899.6368	0	
101	1	909.8469	0	730	2058	2857	4205	501	-14.0	200	0	0	910.8671	1	
102	0	915.3579	0	460	1105	2857	4205	651	-12.0	330	1	1	915.7226	1	
103	0	918.8389	0	595	1582	2857	4205	501	-12.0	200	-1	1	919.4725	-1	
104	0	928.5990	0	730	2058	2857	4205	801	-14.0	459	0	0	929.0134	1	
105	0	932.5362	0	460	1105	2857	4205	681	-12.0	263	1	1	932.9680	1	
106	0	936.0006	0	460	1105	2857	4205	531	-12.0	149	1	1	936.3685	1	
107	0	939.8211	0	730	2058	2857	4205	711	-14.0	459	0	0	940.6362	1	
108	0	944.4536	0	460	1105	2857	4205	621	-12.0	200	1	1	944.8079	1	
109	0	954.8968	1	730	2058	2857	4205	801	-14.0	330	0	0	955.5697	1	
110	0	960.9649	0	460	1105	2857	4205	591	-12.0	263	1	0	963.4090	0	
111	1	973.7205	0	460	1105	2857	4205	591	-12.0	263	1	1	974.6013	1	
112	0	977.9609	0	730	2058	2857	4205	561	-14.0	263	0	1	978.3664	0	
113	1	982.5056	0	730	2058	2857	4205	561	-14.0	263	0	0	983.4827	1	
114	0	986.6722	0	595	1582	2857	4205	501	-12.0	200	-1	1	987.3850	-1	
115	0	1002.4313	1	730	2058	2857	4205	771	-14.0	459	0	1	1002.9461	0	
116	1	1010.2974	0	730	2058	2857	4205	771	-14.0	459	0	0	1011.0634	1	
117	0	1018.6828	0	460	1105	2857	4205	651	-12.0	149	1	1	1018.9487	1	
118	0	1021.8387	0	595	1582	2857	4205	501	-12.0	200	-1	1	1022.2754	-1	
119	0	1026.4784	0	730	2058	2857	4205	561	-14.0	149	0	1	1026.9781	0	
120	1	1099.2911	0	730	2058	2857	4205	561	-14.0	149	0	1	1104.3170	0	
121	1	1119.1122	0	730	2058	2857	4205	561	-14.0	149	0	-1	-1.0000	0	
122	0	1180.3222	0	460	1105	2857	4205	771	-12.0	263	1	-1	-1.0000	0	
123	0	1212.6446	0	460	1105	2857	4205	651	-12.0	459	1	1	1213.1298	1	
124	0	1219.4230	0	730	2058	2857	4205	621	-14.0	330	0	0	1220.1280	1	
125	0	1257.9603	0	730	2058	2857	4205	711	-14.0	200	0	1	1263.2719	0	
126	1	1299.2745	0	730	2058	2857	4205	711	-14.0	200	0	-1	-1.0000	0	
