Trial	CorrectionTrial?	StartTime	CenterReward?	F1	F2	F3	F4	HoldTime	Atten	Pitch	Side	Response	RespTime	Correct	
1	0	4.548	1	730	2058	2857	4205	951	-17.0	263	0	1	9.495	0	
2	1	17.431	0	730	2058	2857	4205	951	-17.0	263	0	0	20.335	1	
3	0	29.711	0	730	2058	2857	4205	601	-17.0	459	0	0	31.375	1	
4	0	42.464	0	460	1105	2857	4205	651	-15.0	330	1	1	43.158	1	
5	0	55.709	0	460	1105	2857	4205	801	-15.0	149	1	1	56.597	1	
6	0	66.033	0	460	1105	2857	4205	751	-9.0	200	1	1	67.072	1	
7	0	78.228	0	460	1105	2857	4205	701	-15.0	263	1	1	78.864	1	
8	0	89.711	1	730	2058	2857	4205	501	-11.0	149	0	1	92.958	0	
9	1	99.220	0	730	2058	2857	4205	501	-11.0	149	0	0	100.778	1	
10	0	109.999	0	730	2058	2857	4205	551	-11.0	330	0	0	111.080	1	
11	0	122.201	0	730	2058	2857	4205	901	-11.0	459	0	0	122.984	1	
12	0	139.945	0	460	1105	2857	4205	1001	-15.0	200	1	1	140.568	1	
13	0	143.583	0	460	1105	2857	4205	701	-9.0	330	1	1	145.179	1	
14	0	151.989	0	730	2058	2857	4205	751	-11.0	149	0	0	152.462	1	
15	0	162.968	0	730	2058	2857	4205	551	-17.0	459	0	0	163.872	1	
16	0	173.720	0	730	2058	2857	4205	951	-11.0	200	0	1	174.099	0	
17	1	186.538	0	730	2058	2857	4205	951	-11.0	200	0	0	189.398	1	
18	0	199.153	0	730	2058	2857	4205	501	-11.0	263	0	1	200.496	0	
19	1	209.496	1	730	2058	2857	4205	501	-11.0	263	0	0	214.625	1	
20	0	221.515	0	460	1105	2857	4205	801	-15.0	330	1	0	224.217	0	
21	1	232.712	0	460	1105	2857	4205	801	-15.0	330	1	1	233.194	1	
22	0	236.658	0	730	2058	2857	4205	651	-11.0	149	0	0	237.213	1	
23	0	246.349	0	460	1105	2857	4205	601	-15.0	263	1	1	246.851	1	
24	0	253.889	0	460	1105	2857	4205	901	-15.0	459	1	0	255.760	0	
25	1	270.400	0	460	1105	2857	4205	901	-15.0	459	1	1	270.911	1	
26	0	288.828	0	460	1105	2857	4205	851	-9.0	200	1	0	292.530	0	
27	1	299.598	0	460	1105	2857	4205	851	-9.0	200	1	1	300.539	1	
28	0	306.847	0	460	1105	2857	4205	801	-15.0	200	1	0	308.672	0	
29	1	317.580	1	460	1105	2857	4205	801	-15.0	200	1	1	322.806	1	
30	0	327.376	0	460	1105	2857	4205	901	-15.0	149	1	0	328.937	0	
31	1	337.886	0	460	1105	2857	4205	901	-15.0	149	1	0	339.037	0	
32	1	346.003	0	460	1105	2857	4205	901	-15.0	149	1	1	347.061	1	
33	0	352.144	0	460	1105	2857	4205	501	-9.0	263	1	1	355.611	1	
34	0	363.824	0	730	2058	2857	4205	601	-11.0	330	0	0	364.790	1	
35	0	376.165	0	730	2058	2857	4205	951	-17.0	459	0	0	378.291	1	
36	0	389.100	0	730	2058	2857	4205	651	-11.0	459	0	0	390.600	1	
37	0	401.678	0	730	2058	2857	4205	751	-17.0	149	0	1	402.290	0	
38	1	409.222	1	730	2058	2857	4205	751	-17.0	149	0	1	415.301	0	
39	1	423.846	0	730	2058	2857	4205	751	-17.0	149	0	0	425.797	1	
40	0	438.159	0	460	1105	2857	4205	551	-9.0	263	1	1	438.684	1	
41	0	443.125	0	460	1105	2857	4205	851	-15.0	330	1	1	444.275	1	
42	0	448.157	0	730	2058	2857	4205	701	-17.0	200	0	0	450.796	1	
43	0	460.246	0	730	2058	2857	4205	601	-11.0	200	0	1	460.959	0	
44	1	469.325	0	730	2058	2857	4205	601	-11.0	200	0	0	470.541	1	
45	0	486.821	0	460	1105	2857	4205	951	-15.0	459	1	1	487.812	1	
46	0	492.183	0	460	1105	2857	4205	551	-9.0	149	1	1	492.933	1	
47	0	497.254	0	460	1105	2857	4205	651	-15.0	263	1	0	498.929	0	
48	1	512.891	0	460	1105	2857	4205	651	-15.0	263	1	1	514.903	1	
49	0	523.926	0	730	2058	2857	4205	801	-11.0	330	0	1	525.793	0	
50	1	535.612	0	730	2058	2857	4205	801	-11.0	330	0	0	536.812	1	
51	0	546.646	0	730	2058	2857	4205	1001	-11.0	200	0	0	547.998	1	
52	0	563.200	0	460	1105	2857	4205	851	-9.0	330	1	0	564.864	0	
53	1	571.701	0	460	1105	2857	4205	851	-9.0	330	1	1	573.259	1	
54	0	576.672	0	730	2058	2857	4205	751	-17.0	263	0	0	577.578	1	
55	0	587.382	0	730	2058	2857	4205	901	-17.0	459	0	0	587.976	1	
56	0	598.515	0	460	1105	2857	4205	701	-15.0	149	1	1	599.717	1	
57	0	606.765	0	460	1105	2857	4205	951	-9.0	459	1	0	607.407	0	
58	1	616.056	0	460	1105	2857	4205	951	-9.0	459	1	1	616.897	1	
59	0	623.223	0	460	1105	2857	4205	1001	-9.0	330	1	1	623.574	1	
60	0	633.047	0	730	2058	2857	4205	851	-11.0	263	0	0	633.857	1	
61	0	641.440	0	730	2058	2857	4205	501	-17.0	200	0	1	643.690	0	
62	1	650.097	1	730	2058	2857	4205	501	-17.0	200	0	1	654.516	0	
63	1	660.205	0	730	2058	2857	4205	501	-17.0	200	0	0	661.181	1	
64	0	671.830	0	460	1105	2857	4205	701	-15.0	149	1	1	672.434	1	
65	0	677.196	0	460	1105	2857	4205	901	-15.0	149	1	1	678.247	1	
66	0	689.244	0	730	2058	2857	4205	801	-17.0	263	0	0	691.254	1	
67	0	701.068	0	730	2058	2857	4205	651	-17.0	330	0	0	702.475	1	
68	0	716.330	0	460	1105	2857	4205	601	-9.0	200	1	1	716.936	1	
69	0	723.183	0	730	2058	2857	4205	551	-11.0	459	0	0	724.093	1	
70	0	732.030	1	730	2058	2857	4205	751	-17.0	149	0	1	736.089	0	
71	1	743.607	0	730	2058	2857	4205	751	-17.0	149	0	0	744.570	1	
72	0	755.179	0	460	1105	2857	4205	501	-9.0	263	1	1	756.036	1	
73	0	761.576	0	730	2058	2857	4205	901	-11.0	330	0	0	762.043	1	
74	0	772.254	0	730	2058	2857	4205	601	-17.0	200	0	1	773.190	0	
75	1	779.895	0	730	2058	2857	4205	601	-17.0	200	0	0	782.521	1	
76	0	797.872	0	460	1105	2857	4205	1001	-15.0	459	1	1	799.052	1	
77	0	802.835	0	730	2058	2857	4205	551	-11.0	330	0	0	803.712	1	
78	0	812.862	0	460	1105	2857	4205	951	-15.0	459	1	1	814.518	1	
79	0	824.519	0	460	1105	2857	4205	801	-9.0	263	1	1	825.785	1	
80	0	833.427	0	460	1105	2857	4205	651	-15.0	149	1	0	835.416	0	
81	1	844.259	0	460	1105	2857	4205	651	-15.0	149	1	1	845.168	1	
82	0	853.917	0	730	2058	2857	4205	701	-11.0	200	0	0	855.182	1	
83	0	867.615	0	730	2058	2857	4205	951	-11.0	200	0	0	868.732	1	
84	0	878.713	0	460	1105	2857	4205	651	-9.0	330	1	1	880.106	1	
85	0	885.786	0	730	2058	2857	4205	751	-11.0	459	0	0	886.650	1	
86	0	898.133	0	460	1105	2857	4205	551	-15.0	263	1	1	899.323	1	
87	0	906.502	0	730	2058	2857	4205	1001	-17.0	149	0	0	906.966	1	
88	0	917.403	0	460	1105	2857	4205	501	-15.0	330	1	1	917.989	1	
89	0	930.051	0	460	1105	2857	4205	901	-9.0	263	1	1	930.961	1	
90	0	940.854	0	730	2058	2857	4205	601	-17.0	149	0	0	941.734	1	
91	0	959.035	0	460	1105	2857	4205	851	-9.0	200	1	1	959.851	1	
92	0	965.123	0	730	2058	2857	4205	701	-11.0	459	0	0	965.568	1	
93	0	978.897	0	730	2058	2857	4205	551	-17.0	263	0	0	980.749	1	
94	0	987.858	0	460	1105	2857	4205	601	-9.0	149	1	1	988.593	1	
95	0	993.892	0	730	2058	2857	4205	801	-11.0	200	0	0	995.045	1	
96	0	1006.053	0	460	1105	2857	4205	1001	-9.0	459	1	1	1006.517	1	
97	0	1018.561	0	730	2058	2857	4205	751	-17.0	330	0	0	1019.270	1	
98	0	1030.438	0	460	1105	2857	4205	951	-9.0	459	1	1	1030.764	1	
99	0	1036.470	0	460	1105	2857	4205	651	-9.0	200	1	1	1037.341	1	
100	0	1041.867	1	460	1105	2857	4205	501	-9.0	149	1	1	1045.328	1	
101	0	1053.409	1	730	2058	2857	4205	901	-11.0	263	0	1	1057.887	0	
102	1	1073.125	1	730	2058	2857	4205	901	-11.0	263	0	1	1078.485	0	
103	1	1089.109	0	730	2058	2857	4205	901	-11.0	263	0	0	1090.508	1	
104	0	1092.889	0	730	2058	2857	4205	851	-17.0	330	0	0	1093.407	1	
105	0	1110.853	0	730	2058	2857	4205	651	-17.0	330	0	0	1111.894	1	
106	0	1121.654	0	730	2058	2857	4205	601	-17.0	149	0	0	1122.510	1	
107	0	1125.081	0	460	1105	2857	4205	501	-15.0	200	1	1	1125.976	1	
108	0	1129.077	0	460	1105	2857	4205	901	-15.0	459	1	1	1129.491	1	
109	0	1131.880	1	460	1105	2857	4205	551	-9.0	263	1	1	1136.524	1	
110	0	1148.308	0	730	2058	2857	4205	1001	-11.0	459	0	0	1150.778	1	
111	0	1162.647	0	460	1105	2857	4205	751	-9.0	200	1	1	1163.059	1	
112	0	1168.210	0	730	2058	2857	4205	701	-11.0	263	0	0	1169.543	1	
113	0	1171.745	0	460	1105	2857	4205	801	-9.0	330	1	1	1172.327	1	
114	0	1179.046	0	730	2058	2857	4205	851	-17.0	149	0	0	1179.775	1	
115	0	1190.780	0	730	2058	2857	4205	701	-17.0	330	0	0	1191.711	1	
116	0	1196.571	0	460	1105	2857	4205	1001	-9.0	459	1	0	1197.137	0	
117	1	1208.784	0	460	1105	2857	4205	1001	-9.0	459	1	1	1209.148	1	
118	0	1213.099	0	730	2058	2857	4205	651	-17.0	263	0	0	1214.200	1	
119	0	1218.174	0	730	2058	2857	4205	801	-11.0	200	0	0	1218.736	1	
120	0	1226.286	0	460	1105	2857	4205	601	-15.0	149	1	0	1227.316	0	
121	1	1235.608	0	460	1105	2857	4205	601	-15.0	149	1	1	1236.456	1	
122	0	1240.644	0	460	1105	2857	4205	751	-9.0	149	1	1	1243.354	1	
123	0	1249.742	0	730	2058	2857	4205	901	-17.0	200	0	0	1251.001	1	
124	0	1260.211	0	460	1105	2857	4205	851	-9.0	263	1	0	1261.116	0	
125	1	1268.893	0	460	1105	2857	4205	851	-9.0	263	1	0	1271.671	0	
126	1	1277.942	0	460	1105	2857	4205	851	-9.0	263	1	1	1279.695	1	
127	0	1287.817	0	730	2058	2857	4205	501	-11.0	459	0	0	1288.595	1	
128	0	1300.251	0	460	1105	2857	4205	951	-9.0	330	1	1	1308.313	1	
129	0	1310.213	0	460	1105	2857	4205	701	-15.0	330	1	0	1311.735	0	
130	1	1321.626	0	460	1105	2857	4205	701	-15.0	330	1	1	1322.552	1	
131	0	1326.761	0	460	1105	2857	4205	901	-9.0	149	1	0	1328.033	0	
132	1	1334.128	0	460	1105	2857	4205	901	-9.0	149	1	1	1334.629	1	
133	0	1346.545	1	730	2058	2857	4205	801	-17.0	459	0	1	1351.763	0	
134	1	1363.747	0	730	2058	2857	4205	801	-17.0	459	0	0	1364.467	1	
135	0	1369.539	0	730	2058	2857	4205	651	-17.0	200	0	0	1370.064	1	
136	0	1375.185	0	460	1105	2857	4205	1001	-15.0	263	1	1	1375.701	1	
137	0	1380.103	0	460	1105	2857	4205	601	-15.0	330	1	1	1381.045	1	
138	0	1386.585	0	730	2058	2857	4205	501	-11.0	459	0	0	1387.197	1	
139	0	1394.513	1	730	2058	2857	4205	851	-17.0	200	0	0	1398.918	1	
140	0	1403.045	0	730	2058	2857	4205	751	-17.0	149	0	0	1403.778	1	
141	0	1417.731	0	460	1105	2857	4205	951	-15.0	263	1	0	1418.210	0	
142	1	1425.298	0	460	1105	2857	4205	951	-15.0	263	1	0	1425.790	0	
143	1	1441.135	0	460	1105	2857	4205	951	-15.0	263	1	0	1442.697	0	
144	1	1449.306	0	460	1105	2857	4205	951	-15.0	263	1	0	1450.046	0	
145	1	1463.176	1	460	1105	2857	4205	951	-15.0	263	1	1	1469.841	1	
146	0	1476.263	1	730	2058	2857	4205	501	-17.0	149	0	1	1479.527	0	
147	1	1487.849	0	730	2058	2857	4205	501	-17.0	149	0	0	1489.018	1	
148	0	1492.287	0	730	2058	2857	4205	801	-17.0	200	0	0	1493.330	1	
149	0	1497.416	0	460	1105	2857	4205	701	-9.0	263	1	0	1499.236	0	
150	1	1509.514	0	460	1105	2857	4205	701	-9.0	263	1	1	1510.506	1	
151	0	1512.979	0	460	1105	2857	4205	901	-9.0	330	1	1	1513.694	1	
152	0	1535.569	0	730	2058	2857	4205	751	-11.0	459	0	1	1537.228	0	
