Trial	CorrectionTrial?	StartTime	CenterReward?	F1	F2	F3	F4	HoldTime	Atten	Pitch	Side	Response	RespTime	Correct	
1	0	7.2836	0	437	2761	2975	4263	531	-12.0	200	0	0	33.2718	1	
2	0	43.1779	0	936	1551	2975	4263	601	-17.0	330	1	0	45.1151	0	
3	1	57.6880	1	936	1551	2975	4263	601	-17.0	330	1	0	63.1167	0	
4	1	72.6043	0	936	1551	2975	4263	601	-17.0	330	1	1	75.1416	1	
5	0	76.2200	0	936	1551	2975	4263	571	-17.0	200	1	0	82.9620	0	
6	1	111.4798	0	936	1551	2975	4263	571	-17.0	200	1	0	123.0773	0	
7	1	131.6465	1	936	1551	2975	4263	571	-17.0	200	1	1	136.6926	1	
8	0	150.9185	0	936	1551	2975	4263	541	-17.0	330	1	0	154.9693	0	
9	1	165.6476	1	936	1551	2975	4263	541	-17.0	330	1	0	167.0747	0	
10	1	182.2425	0	936	1551	2975	4263	541	-17.0	330	1	0	185.1431	0	
11	1	193.3528	0	936	1551	2975	4263	541	-17.0	330	1	0	194.0936	0	
12	1	204.8217	0	936	1551	2975	4263	541	-17.0	330	1	0	206.3979	0	
13	1	217.1079	0	936	1551	2975	4263	541	-17.0	330	1	0	220.3020	0	
14	1	230.0805	0	936	1551	2975	4263	541	-17.0	330	1	0	231.3243	0	
15	1	242.2009	1	936	1551	2975	4263	541	-17.0	330	1	0	265.8519	0	
16	1	275.2213	0	936	1551	2975	4263	541	-17.0	330	1	0	280.3667	0	
17	1	291.1130	0	936	1551	2975	4263	541	-17.0	330	1	0	296.3558	0	
18	1	306.6358	0	936	1551	2975	4263	541	-17.0	330	1	1	307.7953	1	
19	0	318.3957	1	437	2761	2975	4263	561	-12.0	200	0	1	344.2188	0	
20	1	354.0496	0	437	2761	2975	4263	561	-12.0	200	0	0	359.1866	1	
21	0	399.9059	0	936	1551	2975	4263	521	-17.0	330	1	0	401.3782	0	
22	1	410.3202	0	936	1551	2975	4263	521	-17.0	330	1	0	411.5103	0	
23	1	428.1350	0	936	1551	2975	4263	521	-17.0	330	1	1	450.3174	1	
24	0	465.5737	0	437	2761	2975	4263	501	-12.0	330	0	0	467.5148	1	
25	0	473.1655	0	936	1551	2975	4263	511	-17.0	200	1	1	478.4783	1	
26	0	482.9749	0	437	2761	2975	4263	581	-12.0	200	0	1	489.5014	0	
27	1	499.1414	1	437	2761	2975	4263	581	-12.0	200	0	0	546.6582	1	
28	0	562.3971	0	437	2761	2975	4263	551	-12.0	330	0	0	563.6135	1	
29	0	580.2773	0	437	2761	2975	4263	541	-12.0	200	0	0	581.1511	1	
30	0	594.4218	0	437	2761	2975	4263	501	-12.0	330	0	0	595.0950	1	
31	0	604.8893	0	437	2761	2975	4263	571	-12.0	330	0	0	605.4229	1	
32	0	615.0320	0	936	1551	2975	4263	531	-17.0	200	1	0	615.8396	0	
33	1	625.2438	1	936	1551	2975	4263	531	-17.0	200	1	0	626.9459	0	
34	1	637.0293	0	936	1551	2975	4263	531	-17.0	200	1	0	638.5525	0	
35	1	646.6922	1	936	1551	2975	4263	531	-17.0	200	1	0	650.3433	0	
36	1	661.2953	0	936	1551	2975	4263	531	-17.0	200	1	0	665.8649	0	
37	1	677.6544	0	936	1551	2975	4263	531	-17.0	200	1	0	678.5476	0	
38	1	692.9312	0	936	1551	2975	4263	531	-17.0	200	1	1	698.2310	1	
39	0	699.4030	0	936	1551	2975	4263	551	-17.0	200	1	0	700.2050	0	
40	1	716.5468	0	936	1551	2975	4263	551	-17.0	200	1	1	722.2845	1	
41	0	724.4855	1	936	1551	2975	4263	521	-17.0	330	1	0	725.1277	0	
42	1	734.4562	0	936	1551	2975	4263	521	-17.0	330	1	0	737.9994	0	
43	1	750.2493	0	936	1551	2975	4263	521	-17.0	330	1	0	751.5033	0	
44	1	761.7685	0	936	1551	2975	4263	521	-17.0	330	1	0	762.6160	0	
45	1	772.1569	1	936	1551	2975	4263	521	-17.0	330	1	0	786.1383	0	
46	1	799.8406	0	936	1551	2975	4263	521	-17.0	330	1	0	801.3397	0	
47	1	810.4719	0	936	1551	2975	4263	521	-17.0	330	1	0	813.9818	0	
48	1	822.3724	1	936	1551	2975	4263	521	-17.0	330	1	0	829.7992	0	
49	1	840.0119	0	936	1551	2975	4263	521	-17.0	330	1	0	842.8524	0	
50	1	851.7323	0	936	1551	2975	4263	521	-17.0	330	1	0	852.8400	0	
51	1	868.0635	0	936	1551	2975	4263	521	-17.0	330	1	1	869.2815	1	
52	0	884.5450	1	437	2761	2975	4263	581	-12.0	200	0	0	891.6938	1	
53	0	901.1952	1	936	1551	2975	4263	591	-17.0	330	1	0	906.1700	0	
54	1	914.9695	1	936	1551	2975	4263	591	-17.0	330	1	0	921.2134	0	
55	1	929.3347	1	936	1551	2975	4263	591	-17.0	330	1	0	933.2186	0	
56	1	941.0190	0	936	1551	2975	4263	591	-17.0	330	1	0	942.6130	0	
57	1	953.2342	0	936	1551	2975	4263	591	-17.0	330	1	0	956.5702	0	
58	1	964.2436	0	936	1551	2975	4263	591	-17.0	330	1	0	969.6142	0	
59	1	979.4961	1	936	1551	2975	4263	591	-17.0	330	1	0	987.3959	0	
60	1	995.2484	0	936	1551	2975	4263	591	-17.0	330	1	0	996.5765	0	
61	1	1004.9960	0	936	1551	2975	4263	591	-17.0	330	1	0	1012.2950	0	
62	1	1021.8740	0	936	1551	2975	4263	591	-17.0	330	1	1	1023.5210	1	
63	0	1026.9126	0	437	2761	2975	4263	511	-12.0	200	0	0	1027.6112	1	
64	0	1036.6924	0	936	1551	2975	4263	601	-17.0	330	1	0	1037.6823	0	
65	1	1048.8565	1	936	1551	2975	4263	601	-17.0	330	1	0	1053.8215	0	
66	1	1063.5728	0	936	1551	2975	4263	601	-17.0	330	1	0	1067.3922	0	
67	1	1078.9748	0	936	1551	2975	4263	601	-17.0	330	1	0	1079.9596	0	
68	1	1092.1000	0	936	1551	2975	4263	601	-17.0	330	1	1	1095.0189	1	
69	0	1107.8011	1	437	2761	2975	4263	551	-12.0	200	0	0	1109.2065	1	
70	0	1114.6736	1	936	1551	2975	4263	521	-17.0	330	1	0	1118.3437	0	
71	1	1128.1424	1	936	1551	2975	4263	521	-17.0	330	1	0	1131.8828	0	
72	1	1142.4546	0	936	1551	2975	4263	521	-17.0	330	1	0	1143.5963	0	
73	1	1152.8185	1	936	1551	2975	4263	521	-17.0	330	1	0	1159.6730	0	
74	1	1168.0512	1	936	1551	2975	4263	521	-17.0	330	1	0	1176.3730	0	
75	1	1184.0242	0	936	1551	2975	4263	521	-17.0	330	1	0	1187.4747	0	
76	1	1196.1960	0	936	1551	2975	4263	521	-17.0	330	1	0	1197.3879	0	
77	1	1206.3059	1	936	1551	2975	4263	521	-17.0	330	1	0	1216.8343	0	
78	1	1224.7098	0	936	1551	2975	4263	521	-17.0	330	1	1	1227.8775	1	
79	0	1229.0242	1	936	1551	2975	4263	591	-17.0	330	1	0	1237.4616	0	
80	1	1248.5192	1	936	1551	2975	4263	591	-17.0	330	1	0	1257.0305	0	
81	1	1265.3329	0	936	1551	2975	4263	591	-17.0	330	1	0	1269.4580	0	
82	1	1279.3687	1	936	1551	2975	4263	591	-17.0	330	1	0	1289.6223	0	
83	1	1297.7007	0	936	1551	2975	4263	591	-17.0	330	1	1	1302.3043	1	
84	0	1317.9343	1	437	2761	2975	4263	581	-12.0	200	0	0	1318.9496	1	
85	0	1324.4976	0	936	1551	2975	4263	571	-17.0	330	1	0	1327.9981	0	
86	1	1338.3592	1	936	1551	2975	4263	571	-17.0	330	1	0	1344.6212	0	
87	1	1353.7072	0	936	1551	2975	4263	571	-17.0	330	1	1	1358.9285	1	
88	0	1365.0774	0	437	2761	2975	4263	541	-12.0	200	0	0	1365.9030	1	
89	0	1371.9422	1	936	1551	2975	4263	561	-17.0	200	1	0	1377.3097	0	
90	1	1387.5116	1	936	1551	2975	4263	561	-17.0	200	1	0	1388.2542	0	
91	1	1398.0574	0	936	1551	2975	4263	561	-17.0	200	1	0	1399.4384	0	
92	1	1409.5566	0	936	1551	2975	4263	561	-17.0	200	1	1	1415.3672	1	
93	0	1416.7587	1	936	1551	2975	4263	531	-17.0	330	1	0	1422.8795	0	
94	1	1437.5818	1	936	1551	2975	4263	531	-17.0	330	1	0	1445.8837	0	
95	1	1453.7038	0	936	1551	2975	4263	531	-17.0	330	1	1	1459.8275	1	
96	0	1463.0625	0	437	2761	2975	4263	501	-12.0	330	0	0	1464.1822	1	
97	0	1475.3009	1	437	2761	2975	4263	601	-12.0	200	0	0	1480.4412	1	
98	0	1490.0466	0	437	2761	2975	4263	591	-12.0	330	0	0	1491.0056	1	
99	0	1498.4534	0	936	1551	2975	4263	561	-17.0	200	1	0	1499.1211	0	
100	1	1507.6504	0	936	1551	2975	4263	561	-17.0	200	1	0	1508.8866	0	
101	1	1518.9246	0	936	1551	2975	4263	561	-17.0	200	1	1	1522.8410	1	
102	0	1535.6559	0	936	1551	2975	4263	551	-17.0	200	1	1	1538.8085	1	
103	0	1541.3527	0	936	1551	2975	4263	571	-17.0	330	1	0	1542.7994	0	
104	1	1555.5858	0	936	1551	2975	4263	571	-17.0	330	1	0	1556.9191	0	
105	1	1570.9908	0	936	1551	2975	4263	571	-17.0	330	1	1	1575.6226	1	
106	0	1589.4115	1	936	1551	2975	4263	531	-17.0	330	1	1	1602.4622	1	
107	0	1606.1514	0	437	2761	2975	4263	501	-12.0	200	0	0	1607.2455	1	
108	0	1612.8914	0	437	2761	2975	4263	521	-12.0	200	0	0	1613.6743	1	
109	0	1622.0127	0	936	1551	2975	4263	511	-17.0	330	1	0	1623.4691	0	
110	1	1632.5930	1	936	1551	2975	4263	511	-17.0	330	1	0	1643.6519	0	
111	1	1651.5167	0	936	1551	2975	4263	511	-17.0	330	1	0	1652.9279	0	
112	1	1664.0193	0	936	1551	2975	4263	511	-17.0	330	1	0	1665.4814	0	
113	1	1673.6236	1	936	1551	2975	4263	511	-17.0	330	1	0	1681.0797	0	
114	1	1689.9809	0	936	1551	2975	4263	511	-17.0	330	1	1	1694.5355	1	
115	0	1705.3755	1	437	2761	2975	4263	581	-12.0	200	0	0	1707.0026	1	
116	0	1712.1237	1	437	2761	2975	4263	601	-12.0	330	0	0	1716.9121	1	
117	0	1722.2625	0	437	2761	2975	4263	551	-12.0	330	0	0	1722.7401	1	
118	0	1731.9184	0	437	2761	2975	4263	581	-12.0	200	0	0	1732.5662	1	
119	0	1739.1768	1	437	2761	2975	4263	511	-12.0	330	0	0	1739.9538	1	
120	0	1745.8890	1	936	1551	2975	4263	601	-17.0	200	1	0	1751.2327	0	
121	1	1759.4640	0	936	1551	2975	4263	601	-17.0	200	1	1	1768.3592	1	
122	0	1770.0443	0	936	1551	2975	4263	541	-17.0	200	1	0	1771.4799	0	
123	1	1784.2297	0	936	1551	2975	4263	541	-17.0	200	1	1	1788.9383	1	
124	0	1800.2629	0	437	2761	2975	4263	531	-12.0	330	0	0	1801.2112	1	
125	0	1806.3249	0	936	1551	2975	4263	521	-17.0	200	1	0	1822.3279	0	
126	1	1841.0729	0	936	1551	2975	4263	521	-17.0	200	1	0	1842.9164	0	
127	1	1852.6369	0	936	1551	2975	4263	521	-17.0	200	1	0	1854.1897	0	
128	1	1863.0487	0	936	1551	2975	4263	521	-17.0	200	1	0	1864.4188	0	
129	1	1872.2326	1	936	1551	2975	4263	521	-17.0	200	1	0	1880.8617	0	
130	1	1895.3994	0	936	1551	2975	4263	521	-17.0	200	1	0	1897.0475	0	
131	1	1907.8788	1	936	1551	2975	4263	521	-17.0	200	1	0	1913.4751	0	
132	1	1924.4514	0	936	1551	2975	4263	521	-17.0	200	1	0	1926.4681	0	
133	1	1938.1137	1	936	1551	2975	4263	521	-17.0	200	1	1	1951.2882	1	
134	0	1961.1042	0	936	1551	2975	4263	591	-17.0	330	1	1	1964.1965	1	
135	0	1975.1330	0	936	1551	2975	4263	561	-17.0	330	1	0	1982.3606	0	
136	1	1993.7565	1	936	1551	2975	4263	561	-17.0	330	1	0	1998.9196	0	
137	1	2010.4238	0	936	1551	2975	4263	561	-17.0	330	1	0	2012.1356	0	
138	1	2021.8851	0	936	1551	2975	4263	561	-17.0	330	1	0	2023.5156	0	
139	1	2036.0120	1	936	1551	2975	4263	561	-17.0	330	1	0	2040.3079	0	
140	1	2048.5962	0	936	1551	2975	4263	561	-17.0	330	1	1	2061.3417	1	
141	0	2065.1722	0	437	2761	2975	4263	501	-12.0	200	0	0	2066.5321	1	
142	0	2071.5867	1	936	1551	2975	4263	561	-17.0	200	1	0	2072.2218	0	
143	1	2082.0894	0	936	1551	2975	4263	561	-17.0	200	1	0	2082.6466	0	
144	1	2091.0894	0	936	1551	2975	4263	561	-17.0	200	1	0	2100.8014	0	
145	1	2112.4076	1	936	1551	2975	4263	561	-17.0	200	1	0	2118.2030	0	
146	1	2130.4800	0	936	1551	2975	4263	561	-17.0	200	1	0	2131.8320	0	
147	1	2142.2301	0	936	1551	2975	4263	561	-17.0	200	1	0	2143.4489	0	
148	1	2151.8334	0	936	1551	2975	4263	561	-17.0	200	1	0	2153.7633	0	
149	1	2161.6035	0	936	1551	2975	4263	561	-17.0	200	1	0	2163.4490	0	
150	1	2171.7518	0	936	1551	2975	4263	561	-17.0	200	1	1	2184.0911	1	
151	0	2195.9700	1	437	2761	2975	4263	521	-12.0	330	0	0	2206.6840	1	
152	0	2215.7940	1	936	1551	2975	4263	591	-17.0	200	1	0	2220.2203	0	
153	1	2229.0090	0	936	1551	2975	4263	591	-17.0	200	1	0	2230.5931	0	
154	1	2240.8434	0	936	1551	2975	4263	591	-17.0	200	1	0	2242.0344	0	
