Trial	CorrectionTrial?	StartTime	CenterReward?	F1	F2	F3	F4	HoldTime	Atten	Pitch	Side	Response	RespTime	Correct	
1	0	4.1625	0	730	2058	2857	4205	701	-14.0	459	0	1	4.6898	0	
2	1	12.3986	0	730	2058	2857	4205	701	-14.0	459	0	0	12.7980	1	
3	0	30.2421	0	460	1105	2857	4205	651	-12.0	200	1	1	30.6329	1	
4	0	37.0889	1	460	1105	2857	4205	751	-12.0	263	1	1	37.3444	1	
5	0	44.7456	0	460	1105	2857	4205	501	-12.0	149	1	1	48.3761	1	
6	0	52.4884	0	460	1105	2857	4205	851	-12.0	330	1	1	52.7764	1	
7	0	58.0398	0	460	1105	2857	4205	601	-12.0	149	1	1	58.3520	1	
8	0	66.5027	0	730	2058	2857	4205	951	-14.0	459	0	0	67.1110	1	
9	0	69.0122	0	730	2058	2857	4205	551	-14.0	200	0	1	69.1656	0	
10	1	81.5991	0	730	2058	2857	4205	551	-14.0	200	0	0	82.2860	1	
11	0	85.8658	0	730	2058	2857	4205	801	-14.0	330	0	0	86.6045	1	
12	0	92.0487	0	730	2058	2857	4205	1001	-14.0	263	0	0	92.9223	1	
13	0	97.4589	0	730	2058	2857	4205	901	-14.0	149	0	0	97.8460	1	
14	0	102.1862	0	730	2058	2857	4205	801	-14.0	263	0	1	102.4082	0	
15	1	109.3259	0	730	2058	2857	4205	801	-14.0	263	0	0	109.7368	1	
16	0	119.7211	0	460	1105	2857	4205	951	-12.0	459	1	0	120.4190	0	
17	1	134.1288	0	460	1105	2857	4205	951	-12.0	459	1	1	134.2789	1	
18	0	144.5355	0	460	1105	2857	4205	1001	-12.0	200	1	1	144.6624	1	
19	0	148.7448	1	730	2058	2857	4205	601	-14.0	330	0	1	149.4842	0	
20	1	157.3009	0	730	2058	2857	4205	601	-14.0	330	0	1	158.1255	0	
21	1	165.2509	0	730	2058	2857	4205	601	-14.0	330	0	0	165.9857	1	
22	0	168.2267	0	460	1105	2857	4205	551	-12.0	149	1	0	168.8700	0	
23	1	178.7525	0	460	1105	2857	4205	551	-12.0	149	1	1	179.8058	1	
24	0	186.1669	0	460	1105	2857	4205	751	-12.0	263	1	1	186.5502	1	
25	0	190.2268	1	730	2058	2857	4205	701	-14.0	200	0	1	190.4814	0	
26	1	197.6198	0	730	2058	2857	4205	701	-14.0	200	0	0	198.2954	1	
27	0	208.8491	0	730	2058	2857	4205	851	-14.0	459	0	1	209.2047	0	
28	1	216.1121	0	730	2058	2857	4205	851	-14.0	459	0	0	216.9076	1	
29	0	221.3546	0	460	1105	2857	4205	501	-12.0	330	1	1	221.9795	1	
30	0	225.8565	0	730	2058	2857	4205	901	-14.0	330	0	1	226.3693	0	
31	1	233.6310	0	730	2058	2857	4205	901	-14.0	330	0	1	233.8006	0	
32	1	241.2626	0	730	2058	2857	4205	901	-14.0	330	0	0	242.0522	1	
33	0	246.8093	0	730	2058	2857	4205	951	-14.0	200	0	1	246.9949	0	
34	1	260.0287	0	730	2058	2857	4205	951	-14.0	200	0	1	260.2457	0	
35	1	266.8735	0	730	2058	2857	4205	951	-14.0	200	0	0	268.0646	1	
36	0	270.2689	0	460	1105	2857	4205	651	-12.0	149	1	1	270.9614	1	
37	0	274.7172	0	460	1105	2857	4205	851	-12.0	263	1	1	274.9309	1	
38	0	279.0349	1	460	1105	2857	4205	751	-12.0	459	1	1	279.2213	1	
39	0	282.9401	0	460	1105	2857	4205	551	-12.0	200	1	1	285.6511	1	
40	0	289.4305	0	730	2058	2857	4205	701	-14.0	459	0	0	290.0486	1	
41	0	294.5495	0	460	1105	2857	4205	801	-12.0	263	1	1	294.8428	1	
42	0	298.5892	0	730	2058	2857	4205	601	-14.0	149	0	0	299.7356	1	
43	0	319.3480	0	730	2058	2857	4205	1001	-14.0	330	0	1	319.5011	0	
44	1	326.1362	0	730	2058	2857	4205	1001	-14.0	330	0	0	326.6773	1	
45	0	330.4831	0	730	2058	2857	4205	501	-14.0	200	0	0	331.2742	1	
46	0	335.7762	0	730	2058	2857	4205	601	-14.0	149	0	0	336.5676	1	
47	0	340.4459	0	460	1105	2857	4205	951	-12.0	263	1	0	340.8050	0	
48	1	346.8365	0	460	1105	2857	4205	951	-12.0	263	1	1	347.0309	1	
49	0	353.4360	0	730	2058	2857	4205	851	-14.0	330	0	1	353.4768	0	
50	1	360.0856	0	730	2058	2857	4205	851	-14.0	330	0	0	360.5613	1	
51	0	364.8867	0	460	1105	2857	4205	551	-12.0	459	1	0	365.6492	0	
52	1	392.4524	0	460	1105	2857	4205	551	-12.0	459	1	1	393.0015	1	
53	0	397.9933	0	730	2058	2857	4205	651	-14.0	263	0	1	398.3417	0	
54	1	404.9032	0	730	2058	2857	4205	651	-14.0	263	0	0	405.4731	1	
55	0	409.9641	0	460	1105	2857	4205	1001	-12.0	459	1	0	410.4325	0	
56	1	416.8862	0	460	1105	2857	4205	1001	-12.0	459	1	0	417.6273	0	
57	1	423.8551	0	460	1105	2857	4205	1001	-12.0	459	1	1	424.0111	1	
58	0	428.6433	0	460	1105	2857	4205	901	-12.0	200	1	1	428.9467	1	
59	0	433.4340	0	730	2058	2857	4205	751	-14.0	330	0	0	434.3245	1	
60	0	438.6802	0	460	1105	2857	4205	701	-12.0	149	1	1	438.9980	1	
61	0	443.8220	0	730	2058	2857	4205	1001	-14.0	149	0	0	444.2816	1	
62	0	447.9651	0	730	2058	2857	4205	501	-14.0	459	0	0	448.8381	1	
63	0	453.5179	0	460	1105	2857	4205	651	-12.0	200	1	1	453.8346	1	
64	0	457.6989	0	730	2058	2857	4205	751	-14.0	330	0	0	458.6844	1	
65	0	462.1466	0	730	2058	2857	4205	551	-14.0	263	0	0	462.8259	1	
66	0	468.2422	0	460	1105	2857	4205	851	-12.0	149	1	1	468.4151	1	
67	0	472.1272	0	730	2058	2857	4205	601	-14.0	459	0	0	472.8745	1	
68	0	485.1256	0	460	1105	2857	4205	951	-12.0	263	1	1	485.4002	1	
69	0	490.4353	0	460	1105	2857	4205	901	-12.0	200	1	1	490.6492	1	
70	0	494.2445	0	460	1105	2857	4205	801	-12.0	330	1	1	494.5099	1	
71	0	498.2032	0	460	1105	2857	4205	501	-12.0	330	1	1	498.8282	1	
72	0	502.5603	1	460	1105	2857	4205	951	-12.0	149	1	1	502.8275	1	
73	0	506.6624	0	460	1105	2857	4205	901	-12.0	459	1	1	508.7302	1	
74	0	512.5779	0	730	2058	2857	4205	551	-14.0	263	0	0	513.6384	1	
75	0	517.7305	0	730	2058	2857	4205	701	-14.0	200	0	0	518.8758	1	
76	0	522.9756	0	730	2058	2857	4205	651	-14.0	459	0	0	523.9665	1	
77	0	527.9642	0	460	1105	2857	4205	851	-12.0	149	1	0	528.3476	0	
78	1	535.3802	0	460	1105	2857	4205	851	-12.0	149	1	1	535.6707	1	
79	0	539.3383	0	460	1105	2857	4205	751	-12.0	200	1	1	539.6537	1	
80	0	547.8521	0	730	2058	2857	4205	1001	-14.0	330	0	1	548.0258	0	
81	1	558.2228	0	730	2058	2857	4205	1001	-14.0	330	0	0	558.6947	1	
82	0	562.4450	0	730	2058	2857	4205	601	-14.0	263	0	1	562.8271	0	
83	1	569.0143	0	730	2058	2857	4205	601	-14.0	263	0	0	570.3096	1	
84	0	583.7753	0	730	2058	2857	4205	1001	-14.0	200	0	1	583.9822	0	
85	1	591.6520	0	730	2058	2857	4205	1001	-14.0	200	0	0	592.7818	1	
86	0	597.2265	0	460	1105	2857	4205	551	-12.0	330	1	1	597.7383	1	
87	0	606.5087	0	460	1105	2857	4205	951	-12.0	459	1	1	606.6895	1	
88	0	611.2526	1	460	1105	2857	4205	601	-12.0	149	1	1	612.0424	1	
89	0	614.9036	0	730	2058	2857	4205	651	-14.0	263	0	1	616.9265	0	
90	1	632.6329	0	730	2058	2857	4205	651	-14.0	263	0	0	634.0356	1	
91	0	638.0911	0	460	1105	2857	4205	801	-12.0	330	1	1	638.1899	1	
92	0	641.7249	0	730	2058	2857	4205	851	-14.0	149	0	0	643.0472	1	
93	0	653.8222	0	730	2058	2857	4205	751	-14.0	459	0	0	657.0012	1	
94	0	660.8299	0	460	1105	2857	4205	701	-12.0	263	1	1	661.2035	1	
95	0	664.0472	0	730	2058	2857	4205	501	-14.0	200	0	1	664.5587	0	
96	1	674.9455	0	730	2058	2857	4205	501	-14.0	200	0	1	675.8532	0	
97	1	686.8553	0	730	2058	2857	4205	501	-14.0	200	0	-1	-1.0000	0	
98	0	735.7047	0	730	2058	2857	4205	801	-14.0	459	0	1	736.1644	0	
