Trial	CorrectionTrial?	StartTime	CenterReward?	F1	F2	F3	F4	HoldTime	Atten	Pitch	Side	Response	RespTime	Correct	
1	0	8.3649	0	730	2058	2857	4205	951	-10.0	459	1	1	9.1903	1	
2	0	15.5029	0	730	2058	2857	4205	651	-10.0	263	1	0	16.3236	0	
3	1	23.4538	0	730	2058	2857	4205	651	-10.0	263	1	0	24.4906	0	
4	1	44.4383	0	730	2058	2857	4205	651	-10.0	263	1	1	45.5661	1	
5	0	49.1769	0	460	1105	2857	4205	801	-10.0	149	0	0	50.0012	1	
6	0	56.2175	0	460	1105	2857	4205	751	-10.0	200	0	0	56.5701	1	
7	0	69.3658	0	460	1105	2857	4205	851	-10.0	330	0	1	70.0856	0	
8	1	86.4346	0	460	1105	2857	4205	851	-10.0	330	0	1	87.1402	0	
9	1	95.4018	0	460	1105	2857	4205	851	-10.0	330	0	0	95.8414	1	
10	0	100.6817	0	730	2058	2857	4205	701	-10.0	149	1	1	101.1610	1	
11	0	105.4710	0	460	1105	2857	4205	901	-10.0	263	0	0	105.8575	1	
12	0	108.2689	0	460	1105	2857	4205	501	-10.0	459	0	0	108.6891	1	
13	0	112.1222	0	730	2058	2857	4205	601	-10.0	200	1	1	113.0901	1	
14	0	116.6850	1	730	2058	2857	4205	1001	-10.0	330	1	0	117.0877	0	
15	1	131.3076	0	730	2058	2857	4205	1001	-10.0	330	1	1	132.0888	1	
16	0	146.1342	0	730	2058	2857	4205	951	-10.0	263	1	1	146.7722	1	
17	0	157.9658	0	460	1105	2857	4205	1001	-10.0	149	0	0	159.1545	1	
18	0	166.4853	0	730	2058	2857	4205	551	-10.0	459	1	1	167.0785	1	
19	0	173.1653	0	730	2058	2857	4205	601	-10.0	330	1	0	173.6475	0	
20	1	185.6637	0	730	2058	2857	4205	601	-10.0	330	1	1	186.3279	1	
21	0	190.4453	0	460	1105	2857	4205	701	-10.0	200	0	0	191.0463	1	
22	0	194.0896	0	730	2058	2857	4205	751	-10.0	459	1	0	194.5093	0	
23	1	201.4889	0	730	2058	2857	4205	751	-10.0	459	1	1	201.7104	1	
24	0	209.3306	0	460	1105	2857	4205	901	-10.0	263	0	0	209.7062	1	
25	0	211.9121	0	460	1105	2857	4205	651	-10.0	149	0	0	212.3759	1	
26	0	216.5233	0	460	1105	2857	4205	801	-10.0	330	0	0	216.9445	1	
27	0	219.6018	0	730	2058	2857	4205	851	-10.0	200	1	0	220.6140	0	
28	1	228.8420	0	730	2058	2857	4205	851	-10.0	200	1	1	229.9259	1	
29	0	233.4947	1	460	1105	2857	4205	501	-10.0	330	0	0	233.9903	1	
30	0	236.2430	1	460	1105	2857	4205	801	-10.0	200	0	0	236.8224	1	
31	0	240.6023	0	730	2058	2857	4205	701	-10.0	459	1	1	241.7452	1	
32	0	248.4001	0	730	2058	2857	4205	601	-10.0	263	1	1	249.2348	1	
33	0	254.1027	0	460	1105	2857	4205	1001	-10.0	149	0	0	254.5678	1	
34	0	259.3297	0	730	2058	2857	4205	951	-10.0	149	1	1	260.3100	1	
35	0	263.3470	0	460	1105	2857	4205	651	-10.0	459	0	0	263.8230	1	
36	0	269.9178	0	730	2058	2857	4205	851	-10.0	330	1	1	270.8909	1	
37	0	278.9481	1	460	1105	2857	4205	551	-10.0	263	0	0	279.7551	1	
38	0	286.2599	0	730	2058	2857	4205	751	-10.0	200	1	1	287.2864	1	
39	0	292.4208	0	730	2058	2857	4205	951	-10.0	200	1	1	292.8226	1	
40	0	299.1229	0	460	1105	2857	4205	701	-10.0	459	0	0	299.5010	1	
41	0	306.4764	0	730	2058	2857	4205	601	-10.0	330	1	0	307.0653	0	
42	1	315.0740	0	730	2058	2857	4205	601	-10.0	330	1	1	315.7711	1	
43	0	322.6072	0	460	1105	2857	4205	851	-10.0	149	0	0	322.9768	1	
44	0	327.2623	0	730	2058	2857	4205	501	-10.0	263	1	1	328.1033	1	
45	0	332.0316	0	460	1105	2857	4205	551	-10.0	200	0	0	332.6300	1	
46	0	339.1476	0	460	1105	2857	4205	751	-10.0	149	0	0	339.5782	1	
47	0	354.0773	0	460	1105	2857	4205	1001	-10.0	263	0	0	354.3387	1	
48	0	361.4226	0	730	2058	2857	4205	901	-10.0	459	1	0	361.8946	0	
49	1	368.1758	0	730	2058	2857	4205	901	-10.0	459	1	0	368.4211	0	
50	1	377.2277	0	730	2058	2857	4205	901	-10.0	459	1	1	377.6108	1	
51	0	382.0012	0	730	2058	2857	4205	801	-10.0	330	1	1	382.6130	1	
52	0	388.5030	1	460	1105	2857	4205	901	-10.0	263	0	0	388.9569	1	
53	0	401.3534	0	460	1105	2857	4205	951	-10.0	330	0	0	401.6155	1	
54	0	407.4787	0	460	1105	2857	4205	551	-10.0	459	0	0	407.8511	1	
55	0	414.2022	0	730	2058	2857	4205	651	-10.0	200	1	1	414.9231	1	
56	0	418.4226	0	730	2058	2857	4205	501	-10.0	149	1	1	419.1441	1	
57	0	433.2891	0	730	2058	2857	4205	1001	-10.0	459	1	1	434.0449	1	
58	0	440.5644	0	460	1105	2857	4205	801	-10.0	330	0	0	440.8256	1	
59	0	449.7091	0	730	2058	2857	4205	851	-10.0	149	1	0	449.9436	0	
60	1	456.0904	0	730	2058	2857	4205	851	-10.0	149	1	0	456.8014	0	
61	1	464.0403	0	730	2058	2857	4205	851	-10.0	149	1	1	464.6429	1	
62	0	471.9367	0	730	2058	2857	4205	701	-10.0	200	1	0	472.3630	0	
63	1	481.5720	0	730	2058	2857	4205	701	-10.0	200	1	1	482.3650	1	
64	0	486.1821	0	460	1105	2857	4205	751	-10.0	263	0	0	486.7511	1	
65	0	492.3140	0	460	1105	2857	4205	751	-10.0	200	0	0	492.5614	1	
66	0	497.6984	0	460	1105	2857	4205	651	-10.0	330	0	0	497.9403	1	
67	0	507.7622	0	730	2058	2857	4205	901	-10.0	459	1	0	508.0255	0	
68	1	520.1925	0	730	2058	2857	4205	901	-10.0	459	1	1	520.7263	1	
69	0	523.0302	0	730	2058	2857	4205	551	-10.0	149	1	1	523.8478	1	
70	0	527.6239	0	730	2058	2857	4205	851	-10.0	263	1	1	528.1131	1	
71	0	544.0939	0	460	1105	2857	4205	1001	-10.0	459	0	0	544.2559	1	
72	0	553.1705	0	460	1105	2857	4205	951	-10.0	263	0	0	553.5610	1	
73	0	562.0336	0	730	2058	2857	4205	701	-10.0	200	1	0	562.6169	0	
74	1	568.4840	0	730	2058	2857	4205	701	-10.0	200	1	0	569.0362	0	
75	1	575.2007	0	730	2058	2857	4205	701	-10.0	200	1	1	575.7034	1	
76	0	584.2686	0	730	2058	2857	4205	501	-10.0	330	1	0	584.7140	0	
77	1	592.6247	0	730	2058	2857	4205	501	-10.0	330	1	0	593.3907	0	
78	1	599.2517	0	730	2058	2857	4205	501	-10.0	330	1	1	600.0890	1	
79	0	605.4158	1	460	1105	2857	4205	601	-10.0	149	0	0	606.0409	1	
80	0	620.3304	0	460	1105	2857	4205	851	-10.0	330	0	0	620.6119	1	
81	0	625.4667	0	730	2058	2857	4205	701	-10.0	149	1	0	625.7769	0	
82	1	634.2119	0	730	2058	2857	4205	701	-10.0	149	1	0	634.8592	0	
83	1	640.8985	0	730	2058	2857	4205	701	-10.0	149	1	1	641.6968	1	
84	0	646.3268	0	460	1105	2857	4205	751	-10.0	263	0	0	646.6224	1	
85	0	652.6482	0	730	2058	2857	4205	551	-10.0	459	1	0	653.1362	0	
86	1	662.6846	0	730	2058	2857	4205	551	-10.0	459	1	1	663.4066	1	
87	0	666.4844	0	730	2058	2857	4205	501	-10.0	200	1	0	667.0512	0	
88	1	673.5689	0	730	2058	2857	4205	501	-10.0	200	1	1	674.2042	1	
89	0	685.2442	0	730	2058	2857	4205	1001	-10.0	263	1	0	685.5930	0	
90	1	711.1855	0	730	2058	2857	4205	1001	-10.0	263	1	0	712.2235	0	
91	1	719.3380	0	730	2058	2857	4205	1001	-10.0	263	1	1	720.1469	1	
92	0	740.0167	0	730	2058	2857	4205	951	-10.0	200	1	0	740.7250	0	
93	1	992.2891	0	730	2058	2857	4205	951	-10.0	200	1	0	993.1300	0	
