Trial	CorrectionTrial?	StartTime	CenterReward?	F1	F2	F3	F4	HoldTime	Atten	Pitch	Side	Response	RespTime	Correct	
1	0	4.0574	1	730	2058	2857	4205	507	-10.0	200	1	0	5.8144	0	
2	1	12.2640	0	730	2058	2857	4205	507	-10.0	200	1	0	13.5235	0	
3	1	20.2957	0	730	2058	2857	4205	507	-10.0	200	1	0	21.4946	0	
4	1	27.8816	0	730	2058	2857	4205	507	-10.0	200	1	1	28.7966	1	
5	0	41.4329	0	730	2058	2857	4205	503	-10.0	330	1	0	41.8928	0	
6	1	50.0768	0	730	2058	2857	4205	503	-10.0	330	1	1	51.3593	1	
7	0	65.1135	0	730	2058	2857	4205	511	-10.0	459	1	0	65.6548	0	
8	1	71.9777	0	730	2058	2857	4205	511	-10.0	459	1	1	72.4034	1	
9	0	87.1239	0	460	1105	2857	4205	510	-10.0	263	0	0	87.5904	1	
10	0	94.6900	0	460	1105	2857	4205	501	-10.0	149	0	0	94.9976	1	
11	0	104.7869	0	460	1105	2857	4205	509	-10.0	263	0	0	105.2859	1	
12	0	110.0265	0	730	2058	2857	4205	505	-10.0	330	1	0	110.5031	0	
13	1	116.2439	1	730	2058	2857	4205	505	-10.0	330	1	0	117.2433	0	
14	1	123.9776	0	730	2058	2857	4205	505	-10.0	330	1	1	125.1795	1	
15	0	137.0879	0	730	2058	2857	4205	502	-10.0	149	1	0	137.5490	0	
16	1	145.2646	0	730	2058	2857	4205	502	-10.0	149	1	0	145.8829	0	
17	1	152.5019	0	730	2058	2857	4205	502	-10.0	149	1	0	153.0699	0	
18	1	160.1075	0	730	2058	2857	4205	502	-10.0	149	1	0	160.5628	0	
19	1	166.4557	0	730	2058	2857	4205	502	-10.0	149	1	1	166.9266	1	
20	0	180.4155	0	460	1105	2857	4205	504	-10.0	459	0	0	181.0825	1	
21	0	190.9036	0	460	1105	2857	4205	506	-10.0	200	0	0	191.3680	1	
22	0	196.8782	0	730	2058	2857	4205	508	-10.0	263	1	1	198.0291	1	
23	0	212.9354	0	460	1105	2857	4205	510	-10.0	149	0	0	213.2457	1	
24	0	217.9922	0	460	1105	2857	4205	509	-10.0	330	0	0	218.7132	1	
25	0	223.6460	0	730	2058	2857	4205	507	-10.0	200	1	0	224.1625	0	
26	1	230.4262	0	730	2058	2857	4205	507	-10.0	200	1	1	231.2418	1	
27	0	242.8646	0	460	1105	2857	4205	506	-10.0	459	0	0	243.3323	1	
28	0	248.1659	0	460	1105	2857	4205	511	-10.0	330	0	0	248.4704	1	
29	0	253.4390	0	730	2058	2857	4205	501	-10.0	263	1	0	254.0742	0	
30	1	261.5035	0	730	2058	2857	4205	501	-10.0	263	1	1	262.5835	1	
31	0	277.8032	1	460	1105	2857	4205	504	-10.0	200	0	0	278.3399	1	
32	0	288.2886	0	460	1105	2857	4205	502	-10.0	459	0	0	288.6994	1	
33	0	293.4150	0	730	2058	2857	4205	503	-10.0	149	1	1	295.4168	1	
34	0	297.2031	0	730	2058	2857	4205	510	-10.0	459	1	1	297.9060	1	
35	0	316.3262	0	460	1105	2857	4205	506	-10.0	330	0	0	316.9649	1	
36	0	325.3163	0	730	2058	2857	4205	507	-10.0	263	1	1	325.9135	1	
37	0	337.2982	0	730	2058	2857	4205	508	-10.0	200	1	1	338.3868	1	
38	0	350.8770	0	460	1105	2857	4205	501	-10.0	149	0	0	351.6208	1	
39	0	360.1526	0	730	2058	2857	4205	503	-10.0	200	1	1	361.0841	1	
40	0	377.8968	0	460	1105	2857	4205	509	-10.0	459	0	0	378.4693	1	
41	0	383.1015	0	730	2058	2857	4205	505	-10.0	330	1	1	389.1113	1	
42	0	401.3481	0	460	1105	2857	4205	504	-10.0	149	0	0	401.9770	1	
43	0	406.4510	0	730	2058	2857	4205	502	-10.0	263	1	1	407.6639	1	
44	0	418.1584	0	730	2058	2857	4205	508	-10.0	200	1	1	418.8541	1	
45	0	433.3558	0	460	1105	2857	4205	510	-10.0	459	0	0	434.2564	1	
46	0	440.5587	0	460	1105	2857	4205	504	-10.0	330	0	0	441.2279	1	
47	0	452.0768	1	460	1105	2857	4205	507	-10.0	263	0	0	453.4716	1	
48	0	457.1581	0	460	1105	2857	4205	511	-10.0	149	0	0	457.8438	1	
49	0	462.7564	0	730	2058	2857	4205	501	-10.0	263	1	1	463.6325	1	
50	0	465.9012	0	730	2058	2857	4205	506	-10.0	149	1	0	466.3685	0	
51	1	478.5521	1	730	2058	2857	4205	506	-10.0	149	1	0	479.6274	0	
52	1	485.7582	0	730	2058	2857	4205	506	-10.0	149	1	0	487.0225	0	
53	1	492.9762	0	730	2058	2857	4205	506	-10.0	149	1	1	495.0745	1	
54	0	510.1329	0	730	2058	2857	4205	509	-10.0	200	1	1	511.1310	1	
55	0	524.4488	0	460	1105	2857	4205	505	-10.0	459	0	0	525.1665	1	
56	0	529.5783	0	730	2058	2857	4205	502	-10.0	330	1	0	530.5487	0	
57	1	537.7081	1	730	2058	2857	4205	502	-10.0	330	1	1	540.7832	1	
58	0	550.9353	0	730	2058	2857	4205	501	-10.0	459	1	0	551.5944	0	
59	1	558.0061	0	730	2058	2857	4205	501	-10.0	459	1	1	559.1749	1	
60	0	569.3984	0	730	2058	2857	4205	507	-10.0	149	1	1	570.8636	1	
61	0	585.2701	0	460	1105	2857	4205	509	-10.0	200	0	0	585.9472	1	
62	0	589.2821	1	730	2058	2857	4205	510	-10.0	330	1	0	590.2580	0	
63	1	597.7887	0	730	2058	2857	4205	510	-10.0	330	1	0	598.3404	0	
64	1	605.6904	0	730	2058	2857	4205	510	-10.0	330	1	1	608.2417	1	
65	0	621.5090	0	460	1105	2857	4205	511	-10.0	263	0	0	622.1701	1	
66	0	625.9250	0	460	1105	2857	4205	505	-10.0	200	0	0	626.3344	1	
67	0	634.2497	0	730	2058	2857	4205	506	-10.0	459	1	0	634.8253	0	
68	1	640.7404	1	730	2058	2857	4205	506	-10.0	459	1	1	641.5185	1	
69	0	651.1605	0	460	1105	2857	4205	504	-10.0	330	0	0	651.9310	1	
70	0	656.7762	0	730	2058	2857	4205	503	-10.0	263	1	0	657.5606	0	
71	1	666.8244	0	730	2058	2857	4205	503	-10.0	263	1	1	668.2094	1	
72	0	678.1650	0	730	2058	2857	4205	508	-10.0	149	1	0	678.8077	0	
73	1	686.3579	0	730	2058	2857	4205	508	-10.0	149	1	0	686.9980	0	
74	1	692.6495	0	730	2058	2857	4205	508	-10.0	149	1	1	693.2292	1	
75	0	705.7008	0	460	1105	2857	4205	504	-10.0	149	0	0	706.1565	1	
76	0	710.6762	0	460	1105	2857	4205	510	-10.0	200	0	0	711.4482	1	
77	0	716.0480	0	460	1105	2857	4205	502	-10.0	459	0	0	716.6010	1	
78	0	722.0191	0	730	2058	2857	4205	507	-10.0	330	1	0	722.6913	0	
79	1	728.7199	1	730	2058	2857	4205	507	-10.0	330	1	1	730.0654	1	
80	0	739.6168	0	460	1105	2857	4205	511	-10.0	263	0	0	740.2886	1	
81	0	744.5008	0	730	2058	2857	4205	503	-10.0	149	1	0	745.1313	0	
82	1	752.5399	0	730	2058	2857	4205	503	-10.0	149	1	0	753.1727	0	
83	1	759.7702	0	730	2058	2857	4205	503	-10.0	149	1	1	760.4535	1	
84	0	771.8204	0	730	2058	2857	4205	501	-10.0	330	1	1	772.6733	1	
85	0	783.2978	0	460	1105	2857	4205	508	-10.0	263	0	0	783.7965	1	
86	0	788.9575	0	730	2058	2857	4205	506	-10.0	200	1	0	789.6764	0	
87	1	797.3364	0	730	2058	2857	4205	506	-10.0	200	1	1	798.5218	1	
88	0	813.3288	0	460	1105	2857	4205	509	-10.0	459	0	0	814.0591	1	
89	0	818.4840	0	730	2058	2857	4205	506	-10.0	200	1	0	818.9310	0	
90	1	825.5353	0	730	2058	2857	4205	506	-10.0	200	1	1	826.2957	1	
91	0	840.3065	0	460	1105	2857	4205	508	-10.0	459	0	0	840.7707	1	
92	0	845.8782	0	730	2058	2857	4205	511	-10.0	330	1	1	846.6832	1	
93	0	858.7590	0	730	2058	2857	4205	510	-10.0	263	1	1	859.7259	1	
94	0	875.0083	0	460	1105	2857	4205	502	-10.0	149	0	0	875.3650	1	
95	0	882.9116	0	460	1105	2857	4205	503	-10.0	459	0	0	883.6312	1	
96	0	888.7052	0	730	2058	2857	4205	507	-10.0	330	1	0	889.4790	0	
97	1	896.5311	0	730	2058	2857	4205	507	-10.0	330	1	1	897.8099	1	
98	0	912.3252	0	460	1105	2857	4205	504	-10.0	263	0	0	913.2214	1	
99	0	918.1062	0	730	2058	2857	4205	505	-10.0	200	1	1	919.1570	1	
100	0	925.7178	0	460	1105	2857	4205	509	-10.0	149	0	0	926.4391	1	
101	0	934.1377	0	460	1105	2857	4205	508	-10.0	330	0	0	934.5778	1	
102	0	942.3599	0	460	1105	2857	4205	511	-10.0	459	0	0	942.8708	1	
103	0	947.5840	0	730	2058	2857	4205	509	-10.0	263	1	1	948.7466	1	
104	0	963.9524	0	730	2058	2857	4205	504	-10.0	200	1	0	964.5120	0	
105	1	971.0182	0	730	2058	2857	4205	504	-10.0	200	1	1	971.7331	1	
106	0	983.5743	0	730	2058	2857	4205	505	-10.0	149	1	0	984.3754	0	
107	1	990.3708	0	730	2058	2857	4205	505	-10.0	149	1	1	991.0975	1	
108	0	1002.3558	0	460	1105	2857	4205	507	-10.0	459	0	0	1002.8092	1	
109	0	1007.5360	0	460	1105	2857	4205	506	-10.0	330	0	0	1008.0814	1	
110	0	1015.0694	0	460	1105	2857	4205	502	-10.0	263	0	0	1015.9533	1	
111	0	1023.7197	0	730	2058	2857	4205	503	-10.0	149	1	0	1024.2549	0	
112	1	1030.1692	0	730	2058	2857	4205	503	-10.0	149	1	1	1031.0782	1	
113	0	1046.0539	1	730	2058	2857	4205	510	-10.0	200	1	1	1047.3044	1	
114	0	1057.2622	0	730	2058	2857	4205	503	-10.0	200	1	0	1057.9672	0	
115	1	1065.6047	0	730	2058	2857	4205	503	-10.0	200	1	1	1066.3219	1	
116	0	1076.4780	0	730	2058	2857	4205	507	-10.0	459	1	1	1077.4551	1	
117	0	1090.8425	0	460	1105	2857	4205	506	-10.0	149	0	0	1091.5033	1	
118	0	1101.6137	0	460	1105	2857	4205	510	-10.0	263	0	0	1102.3412	1	
119	0	1111.0864	0	730	2058	2857	4205	505	-10.0	330	1	0	1111.6202	0	
120	1	1125.0568	0	730	2058	2857	4205	505	-10.0	330	1	1	1125.9416	1	
121	0	1143.3191	0	460	1105	2857	4205	502	-10.0	149	0	0	1143.7626	1	
122	0	1148.8549	0	730	2058	2857	4205	504	-10.0	263	1	1	1149.6015	1	
123	0	1170.2391	0	460	1105	2857	4205	509	-10.0	459	0	0	1170.6117	1	
124	0	1184.3637	1	730	2058	2857	4205	501	-10.0	200	1	1	1185.3778	1	
125	0	1195.4257	1	730	2058	2857	4205	508	-10.0	330	1	0	1196.5343	0	
126	1	1203.7861	0	730	2058	2857	4205	508	-10.0	330	1	1	1204.5047	1	
127	0	1217.7808	0	460	1105	2857	4205	507	-10.0	200	0	0	1218.3015	1	
128	0	1226.2641	0	460	1105	2857	4205	506	-10.0	149	0	0	1226.9947	1	
129	0	1232.0361	0	460	1105	2857	4205	502	-10.0	263	0	0	1232.4617	1	
130	0	1237.6373	0	730	2058	2857	4205	505	-10.0	330	1	0	1238.2981	0	
131	1	1244.5363	0	730	2058	2857	4205	505	-10.0	330	1	1	1245.4222	1	
132	0	1260.2751	0	460	1105	2857	4205	504	-10.0	459	0	0	1260.9829	1	
133	0	1265.8987	0	730	2058	2857	4205	511	-10.0	263	1	1	1267.0929	1	
134	0	1269.6100	0	730	2058	2857	4205	508	-10.0	459	1	1	1270.3433	1	
135	0	1285.8744	0	730	2058	2857	4205	503	-10.0	200	1	1	1286.9086	1	
136	0	1300.2387	0	460	1105	2857	4205	510	-10.0	149	0	0	1300.6517	1	
137	0	1305.2921	0	460	1105	2857	4205	501	-10.0	330	0	0	1305.8541	1	
138	0	1310.3964	0	730	2058	2857	4205	511	-10.0	149	1	1	1311.9232	1	
139	0	1322.0855	0	730	2058	2857	4205	509	-10.0	459	1	1	1323.1208	1	
140	0	1336.4815	0	730	2058	2857	4205	501	-10.0	330	1	1	1337.3457	1	
141	0	1350.0897	0	460	1105	2857	4205	506	-10.0	200	0	0	1350.6372	1	
142	0	1355.3451	0	460	1105	2857	4205	508	-10.0	263	0	0	1355.9952	1	
143	0	1361.2374	0	730	2058	2857	4205	510	-10.0	200	1	1	1362.9936	1	
144	0	1376.6572	1	460	1105	2857	4205	503	-10.0	330	0	0	1377.5500	1	
145	0	1380.8712	0	460	1105	2857	4205	502	-10.0	459	0	0	1382.6456	1	
146	0	1393.8509	1	460	1105	2857	4205	505	-10.0	149	0	0	1397.8452	1	
147	0	1406.6660	0	730	2058	2857	4205	507	-10.0	263	1	1	1410.5615	1	
148	0	1416.0660	0	460	1105	2857	4205	504	-10.0	459	0	0	1421.7342	1	
149	0	1429.2260	0	730	2058	2857	4205	501	-10.0	200	1	1	1430.9381	1	
150	0	1447.6255	0	460	1105	2857	4205	510	-10.0	330	0	0	1448.2711	1	
151	0	1452.0530	1	730	2058	2857	4205	505	-10.0	263	1	0	1453.2775	0	
152	1	1459.5837	0	730	2058	2857	4205	505	-10.0	263	1	1	1460.1583	1	
153	0	1462.7706	0	730	2058	2857	4205	502	-10.0	149	1	1	1463.4127	1	
154	0	1479.3836	0	730	2058	2857	4205	503	-10.0	330	1	0	1480.1941	0	
155	1	1486.6227	0	730	2058	2857	4205	503	-10.0	330	1	0	1487.1164	0	
156	1	1493.1385	0	730	2058	2857	4205	503	-10.0	330	1	1	1493.9937	1	
157	0	1506.4652	0	460	1105	2857	4205	508	-10.0	459	0	0	1506.9990	1	
158	0	1511.9540	0	460	1105	2857	4205	509	-10.0	263	0	0	1512.3649	1	
159	0	1526.6339	1	730	2058	2857	4205	507	-10.0	200	1	1	1528.3346	1	
160	0	1536.9136	0	730	2058	2857	4205	506	-10.0	149	1	1	1538.2965	1	
161	0	1549.7673	0	460	1105	2857	4205	510	-10.0	330	0	0	1550.3458	1	
162	0	1554.2546	0	460	1105	2857	4205	501	-10.0	149	0	0	1554.7510	1	
163	0	1559.5219	0	730	2058	2857	4205	504	-10.0	459	1	1	1560.9999	1	
164	0	1572.6007	0	730	2058	2857	4205	505	-10.0	263	1	1	1573.7646	1	
165	0	1586.9069	0	730	2058	2857	4205	509	-10.0	200	1	1	1588.2107	1	
166	0	1598.5770	0	730	2058	2857	4205	511	-10.0	263	1	1	1599.6024	1	
167	0	1609.6261	0	730	2058	2857	4205	508	-10.0	200	1	1	1610.2821	1	
168	0	1622.2188	0	460	1105	2857	4205	503	-10.0	330	0	0	1622.7402	1	
169	0	1629.9596	0	460	1105	2857	4205	507	-10.0	459	0	0	1630.3664	1	
170	0	1638.7292	0	730	2058	2857	4205	506	-10.0	149	1	0	1639.1702	0	
171	1	1649.6340	0	730	2058	2857	4205	506	-10.0	149	1	1	1650.5143	1	
172	0	1663.3623	0	460	1105	2857	4205	510	-10.0	200	0	0	1663.7636	1	
173	0	1668.9696	0	460	1105	2857	4205	508	-10.0	330	0	0	1669.5078	1	
174	0	1678.5852	0	460	1105	2857	4205	501	-10.0	263	0	0	1679.0795	1	
175	0	1686.7554	0	460	1105	2857	4205	509	-10.0	149	0	0	1687.2360	1	
176	0	1695.7374	1	460	1105	2857	4205	507	-10.0	459	0	0	1696.2601	1	
177	0	1700.6984	0	730	2058	2857	4205	511	-10.0	149	1	1	1701.9008	1	
178	0	1706.5119	0	460	1105	2857	4205	502	-10.0	200	0	0	1707.1273	1	
179	0	1711.8188	0	460	1105	2857	4205	504	-10.0	330	0	0	1712.4060	1	
180	0	1720.5199	0	460	1105	2857	4205	505	-10.0	459	0	0	1720.9623	1	
181	0	1725.6804	0	730	2058	2857	4205	506	-10.0	263	1	1	1726.7135	1	
182	0	1740.7146	0	730	2058	2857	4205	509	-10.0	330	1	1	1741.3626	1	
183	0	1765.7779	0	460	1105	2857	4205	506	-10.0	200	0	0	1766.1752	1	
184	0	1770.9272	0	460	1105	2857	4205	502	-10.0	263	0	0	1771.3450	1	
185	0	1776.5183	0	730	2058	2857	4205	507	-10.0	459	1	1	1777.7064	1	
186	0	1779.9499	0	730	2058	2857	4205	501	-10.0	149	1	1	1780.6744	1	
187	0	1796.5282	0	460	1105	2857	4205	504	-10.0	149	0	0	1797.5253	1	
188	0	1802.1553	0	730	2058	2857	4205	508	-10.0	330	1	1	1803.2216	1	
189	0	1808.6322	0	730	2058	2857	4205	503	-10.0	200	1	1	1809.2066	1	
190	0	1823.1350	0	730	2058	2857	4205	510	-10.0	263	1	1	1824.1780	1	
191	0	1835.9806	0	460	1105	2857	4205	511	-10.0	459	0	0	1836.4267	1	
192	0	1844.5084	0	460	1105	2857	4205	511	-10.0	200	0	0	1844.9860	1	
193	0	1849.7482	1	730	2058	2857	4205	507	-10.0	459	1	0	1850.2461	0	
194	1	1857.2860	0	730	2058	2857	4205	507	-10.0	459	1	1	1858.2069	1	
195	0	1866.5529	0	730	2058	2857	4205	508	-10.0	263	1	1	1867.5288	1	
196	0	1877.4558	0	730	2058	2857	4205	501	-10.0	149	1	1	1878.7187	1	
197	0	1893.7496	1	730	2058	2857	4205	502	-10.0	330	1	0	1894.8866	0	
198	1	1931.3118	0	730	2058	2857	4205	502	-10.0	330	1	0	1931.8809	0	
199	1	1938.6891	1	730	2058	2857	4205	502	-10.0	330	1	1	1939.9813	1	
200	0	1954.8460	0	730	2058	2857	4205	510	-10.0	459	1	1	1955.4768	1	
201	0	1987.5368	0	460	1105	2857	4205	506	-10.0	330	0	0	1988.3596	1	
202	0	1995.9249	0	460	1105	2857	4205	503	-10.0	263	0	0	1996.4713	1	
203	0	2000.3519	0	730	2058	2857	4205	509	-10.0	200	1	0	2001.0584	0	
204	1	2008.4110	0	730	2058	2857	4205	509	-10.0	200	1	0	2008.9728	0	
205	1	2019.0531	0	730	2058	2857	4205	509	-10.0	200	1	1	2019.9101	1	
206	0	2031.1849	0	460	1105	2857	4205	504	-10.0	149	0	0	2031.7866	1	
207	0	2038.9162	0	460	1105	2857	4205	505	-10.0	330	0	0	2039.3927	1	
208	0	2052.1096	0	460	1105	2857	4205	510	-10.0	200	0	0	2052.5108	1	
209	0	2058.1691	0	730	2058	2857	4205	501	-10.0	149	1	0	2058.9984	0	
210	1	2066.9014	0	730	2058	2857	4205	501	-10.0	149	1	1	2067.8451	1	
211	0	2079.7804	0	460	1105	2857	4205	502	-10.0	263	0	0	2080.1624	1	
212	0	2085.1642	0	730	2058	2857	4205	509	-10.0	459	1	0	2086.3187	0	
213	1	2099.7980	0	730	2058	2857	4205	509	-10.0	459	1	1	2100.9873	1	
214	0	2113.8958	0	460	1105	2857	4205	504	-10.0	200	0	0	2114.3529	1	
215	0	2118.5582	0	460	1105	2857	4205	508	-10.0	149	0	0	2118.9737	1	
216	0	2126.4132	0	460	1105	2857	4205	503	-10.0	330	0	0	2126.9506	1	
217	0	2132.2791	0	730	2058	2857	4205	511	-10.0	459	1	1	2134.0946	1	
218	0	2136.7010	0	730	2058	2857	4205	506	-10.0	263	1	1	2137.2822	1	
219	0	2156.1138	0	730	2058	2857	4205	504	-10.0	459	1	1	2156.8756	1	
220	0	2169.1854	0	730	2058	2857	4205	503	-10.0	149	1	0	2169.6468	0	
221	1	2222.9054	0	730	2058	2857	4205	503	-10.0	149	1	1	2224.0603	1	
