Trial	CorrectionTrial?	StartTime	CenterReward?	F1	F2	F3	F4	HoldTime	Atten	Pitch	Side	Response	RespTime	Correct	
1	0	10.271	0	730	2058	2857	4205	701	-17.0	330	1	0	11.511	0	
2	1	25.906	0	730	2058	2857	4205	701	-17.0	330	1	1	26.768	1	
3	0	33.018	0	730	2058	2857	4205	651	-17.0	149	1	1	33.879	1	
4	0	39.610	0	460	1105	2857	4205	551	-15.0	200	0	1	40.822	0	
5	1	48.676	0	460	1105	2857	4205	551	-15.0	200	0	0	49.663	1	
6	0	57.108	0	460	1105	2857	4205	951	-15.0	459	0	1	57.485	0	
7	1	68.741	0	460	1105	2857	4205	951	-15.0	459	0	0	69.547	1	
8	0	79.655	0	730	2058	2857	4205	901	-17.0	263	1	1	79.993	1	
9	0	85.246	0	460	1105	2857	4205	851	-9.0	263	0	1	85.825	0	
10	1	96.831	1	460	1105	2857	4205	851	-9.0	263	0	1	101.408	0	
11	1	109.234	0	460	1105	2857	4205	851	-9.0	263	0	0	110.700	1	
12	0	121.367	0	460	1105	2857	4205	801	-15.0	459	0	0	121.954	1	
13	0	132.585	1	730	2058	2857	4205	501	-11.0	200	1	1	135.973	1	
14	0	142.773	0	730	2058	2857	4205	751	-17.0	149	1	1	143.602	1	
15	0	149.034	0	460	1105	2857	4205	1001	-9.0	330	0	1	149.431	0	
16	1	159.631	1	460	1105	2857	4205	1001	-9.0	330	0	1	162.608	0	
17	1	173.341	0	460	1105	2857	4205	1001	-9.0	330	0	0	174.125	1	
18	0	184.700	0	460	1105	2857	4205	601	-15.0	263	0	1	185.597	0	
19	1	198.007	0	460	1105	2857	4205	601	-15.0	263	0	0	198.968	1	
20	0	206.720	0	730	2058	2857	4205	951	-11.0	200	1	1	207.801	1	
21	0	213.550	0	730	2058	2857	4205	651	-11.0	459	1	1	214.252	1	
22	0	223.139	0	730	2058	2857	4205	901	-17.0	149	1	1	224.132	1	
23	0	231.174	0	460	1105	2857	4205	551	-15.0	330	0	0	232.209	1	
24	0	242.987	0	460	1105	2857	4205	701	-15.0	263	0	0	243.786	1	
25	0	254.326	0	460	1105	2857	4205	1001	-9.0	149	0	0	254.772	1	
26	0	262.686	0	460	1105	2857	4205	851	-15.0	330	0	0	263.300	1	
27	0	272.527	0	730	2058	2857	4205	801	-11.0	200	1	1	273.764	1	
28	0	278.904	0	730	2058	2857	4205	751	-17.0	459	1	1	279.398	1	
29	0	285.981	0	460	1105	2857	4205	551	-9.0	263	0	0	287.365	1	
30	0	296.547	0	730	2058	2857	4205	651	-17.0	330	1	1	296.929	1	
31	0	302.873	0	460	1105	2857	4205	501	-15.0	200	0	0	303.881	1	
32	0	311.848	1	460	1105	2857	4205	851	-15.0	459	0	1	315.572	0	
33	1	329.219	0	460	1105	2857	4205	851	-15.0	459	0	1	329.693	0	
34	1	336.786	0	460	1105	2857	4205	851	-15.0	459	0	0	337.595	1	
35	0	346.536	0	730	2058	2857	4205	901	-11.0	149	1	1	347.035	1	
36	0	352.937	0	460	1105	2857	4205	801	-15.0	263	0	1	353.779	0	
37	1	360.636	0	460	1105	2857	4205	801	-15.0	263	0	1	361.899	0	
38	1	368.598	0	460	1105	2857	4205	801	-15.0	263	0	0	369.467	1	
39	0	379.896	0	730	2058	2857	4205	1001	-17.0	200	1	1	380.273	1	
40	0	385.606	0	730	2058	2857	4205	951	-17.0	459	1	1	386.466	1	
41	0	393.033	0	460	1105	2857	4205	701	-15.0	330	0	1	394.365	0	
42	1	402.804	1	460	1105	2857	4205	701	-15.0	330	0	1	406.649	0	
43	1	415.008	0	460	1105	2857	4205	701	-15.0	330	0	0	416.507	1	
44	0	427.130	0	730	2058	2857	4205	751	-17.0	149	1	1	428.149	1	
45	0	434.890	0	730	2058	2857	4205	701	-17.0	263	1	1	435.422	1	
46	0	442.703	1	730	2058	2857	4205	851	-11.0	149	1	1	446.238	1	
47	0	452.959	0	460	1105	2857	4205	801	-15.0	200	0	1	454.030	0	
48	1	463.312	0	460	1105	2857	4205	801	-15.0	200	0	0	464.069	1	
49	0	475.509	0	460	1105	2857	4205	901	-9.0	330	0	1	476.506	0	
50	1	485.160	0	460	1105	2857	4205	901	-9.0	330	0	0	485.995	1	
51	0	495.539	1	460	1105	2857	4205	951	-9.0	459	0	0	499.857	1	
52	0	507.666	0	730	2058	2857	4205	651	-17.0	459	1	1	508.658	1	
53	0	516.043	1	730	2058	2857	4205	501	-11.0	149	1	1	519.881	1	
54	0	524.980	1	460	1105	2857	4205	1001	-15.0	330	0	1	528.341	0	
55	1	535.022	0	460	1105	2857	4205	1001	-15.0	330	0	0	535.616	1	
56	0	545.440	0	730	2058	2857	4205	751	-11.0	200	1	1	546.051	1	
57	0	551.642	0	460	1105	2857	4205	551	-15.0	263	0	1	552.887	0	
58	1	562.463	0	460	1105	2857	4205	551	-15.0	263	0	0	564.459	1	
59	0	571.969	0	730	2058	2857	4205	851	-17.0	149	1	1	573.058	1	
60	0	580.438	0	730	2058	2857	4205	951	-11.0	330	1	1	581.318	1	
61	0	593.276	1	730	2058	2857	4205	901	-17.0	263	1	1	595.419	1	
62	0	600.764	1	460	1105	2857	4205	1001	-15.0	459	0	1	605.399	0	
63	1	616.894	0	460	1105	2857	4205	1001	-15.0	459	0	0	617.590	1	
64	0	623.484	0	460	1105	2857	4205	501	-15.0	200	0	0	624.379	1	
65	0	631.579	0	460	1105	2857	4205	551	-9.0	263	0	0	632.473	1	
66	0	640.362	0	730	2058	2857	4205	701	-17.0	459	1	1	640.793	1	
67	0	644.746	0	730	2058	2857	4205	651	-11.0	149	1	1	646.023	1	
68	0	650.719	0	460	1105	2857	4205	601	-9.0	200	0	1	655.341	0	
69	1	665.178	1	460	1105	2857	4205	601	-9.0	200	0	0	669.199	1	
70	0	677.778	0	460	1105	2857	4205	801	-9.0	330	0	0	678.318	1	
71	0	687.130	1	730	2058	2857	4205	551	-17.0	263	1	1	690.028	1	
72	0	695.346	0	730	2058	2857	4205	751	-17.0	330	1	1	696.436	1	
73	0	706.121	0	730	2058	2857	4205	701	-17.0	149	1	1	706.887	1	
74	0	718.200	0	730	2058	2857	4205	951	-11.0	459	1	1	719.018	1	
75	0	726.357	0	460	1105	2857	4205	1001	-15.0	200	0	0	727.412	1	
76	0	738.305	0	730	2058	2857	4205	851	-11.0	200	1	1	739.317	1	
77	0	746.030	0	460	1105	2857	4205	801	-15.0	459	0	0	746.971	1	
78	0	754.614	0	460	1105	2857	4205	651	-9.0	149	0	0	755.349	1	
79	0	766.217	0	460	1105	2857	4205	501	-15.0	263	0	0	766.962	1	
80	0	777.616	0	460	1105	2857	4205	901	-15.0	330	0	1	778.668	0	
81	1	789.975	0	460	1105	2857	4205	901	-15.0	330	0	0	791.106	1	
82	0	799.349	0	730	2058	2857	4205	751	-17.0	330	1	1	800.288	1	
83	0	808.792	0	730	2058	2857	4205	551	-17.0	459	1	1	809.815	1	
84	0	815.843	0	730	2058	2857	4205	951	-11.0	263	1	1	816.709	1	
85	0	822.751	0	460	1105	2857	4205	801	-9.0	200	0	0	825.223	1	
86	0	834.468	0	460	1105	2857	4205	601	-15.0	149	0	0	835.637	1	
87	0	845.047	0	730	2058	2857	4205	1001	-11.0	263	1	1	845.812	1	
88	0	852.466	0	460	1105	2857	4205	901	-15.0	330	0	0	853.645	1	
89	0	861.258	0	730	2058	2857	4205	651	-11.0	200	1	1	862.218	1	
90	0	870.837	0	460	1105	2857	4205	851	-9.0	149	0	0	871.546	1	
91	0	879.891	0	460	1105	2857	4205	501	-9.0	459	0	1	880.864	0	
92	1	888.992	0	460	1105	2857	4205	501	-9.0	459	0	0	890.105	1	
93	0	897.397	0	730	2058	2857	4205	551	-17.0	149	1	1	898.299	1	
94	0	902.456	0	460	1105	2857	4205	651	-9.0	330	0	1	903.879	0	
95	1	913.756	0	460	1105	2857	4205	651	-9.0	330	0	0	917.081	1	
96	0	925.696	0	730	2058	2857	4205	851	-17.0	263	1	1	926.199	1	
97	0	934.676	0	460	1105	2857	4205	751	-9.0	200	0	0	935.504	1	
98	0	942.904	0	730	2058	2857	4205	951	-11.0	459	1	1	943.511	1	
99	0	948.332	0	730	2058	2857	4205	801	-11.0	459	1	1	949.386	1	
100	0	955.711	0	730	2058	2857	4205	901	-17.0	149	1	1	956.683	1	
101	0	962.247	1	460	1105	2857	4205	501	-9.0	263	0	1	965.671	0	
102	1	978.816	0	460	1105	2857	4205	501	-9.0	263	0	1	979.908	0	
103	1	990.428	0	460	1105	2857	4205	501	-9.0	263	0	0	991.238	1	
104	0	999.627	0	460	1105	2857	4205	1001	-15.0	330	0	0	1000.466	1	
105	0	1009.364	0	460	1105	2857	4205	601	-15.0	200	0	0	1010.387	1	
106	0	1021.390	0	730	2058	2857	4205	551	-17.0	459	1	1	1022.685	1	
107	0	1028.550	0	730	2058	2857	4205	901	-11.0	200	1	1	1029.638	1	
108	0	1035.848	0	460	1105	2857	4205	1001	-9.0	330	0	0	1036.943	1	
109	0	1044.769	0	460	1105	2857	4205	601	-15.0	149	0	0	1045.919	1	
110	0	1054.423	0	460	1105	2857	4205	851	-9.0	263	0	1	1055.662	0	
111	1	1070.003	0	460	1105	2857	4205	851	-9.0	263	0	0	1070.984	1	
112	0	1077.234	0	460	1105	2857	4205	501	-9.0	330	0	0	1078.385	1	
113	0	1087.398	0	460	1105	2857	4205	751	-9.0	200	0	0	1088.264	1	
114	0	1094.653	0	730	2058	2857	4205	801	-17.0	263	1	1	1095.400	1	
115	0	1100.768	0	730	2058	2857	4205	701	-17.0	149	1	1	1101.814	1	
116	0	1108.817	0	730	2058	2857	4205	651	-17.0	459	1	1	1109.899	1	
117	0	1127.451	0	460	1105	2857	4205	901	-15.0	330	0	0	1128.425	1	
118	0	1141.062	1	460	1105	2857	4205	701	-9.0	149	0	0	1145.377	1	
119	0	1152.926	1	730	2058	2857	4205	601	-17.0	263	1	1	1156.368	1	
120	0	1161.949	0	460	1105	2857	4205	1001	-15.0	459	0	1	1162.481	0	
121	1	1172.158	0	460	1105	2857	4205	1001	-15.0	459	0	0	1173.382	1	
122	0	1182.105	0	730	2058	2857	4205	801	-17.0	200	1	1	1182.721	1	
123	0	1188.625	0	460	1105	2857	4205	951	-9.0	263	0	1	1189.312	0	
124	1	1196.293	1	460	1105	2857	4205	951	-9.0	263	0	0	1200.670	1	
125	0	1206.389	0	460	1105	2857	4205	501	-15.0	200	0	0	1210.778	1	
126	0	1226.900	0	730	2058	2857	4205	851	-17.0	330	1	1	1227.588	1	
127	0	1232.288	1	730	2058	2857	4205	651	-17.0	149	1	1	1235.617	1	
128	0	1243.296	0	730	2058	2857	4205	751	-11.0	459	1	1	1244.417	1	
129	0	1253.416	0	730	2058	2857	4205	551	-11.0	200	1	1	1254.577	1	
130	0	1279.409	0	730	2058	2857	4205	701	-11.0	459	1	1	1280.727	1	
131	0	1287.702	1	460	1105	2857	4205	1001	-9.0	149	0	0	1288.457	1	
132	0	1298.521	0	460	1105	2857	4205	501	-15.0	330	0	0	1302.784	1	
133	0	1308.474	0	730	2058	2857	4205	801	-17.0	263	1	1	1308.940	1	
134	0	1316.044	0	460	1105	2857	4205	651	-9.0	330	0	0	1317.560	1	
135	0	1325.727	1	730	2058	2857	4205	751	-11.0	459	1	1	1328.758	1	
136	0	1334.135	0	460	1105	2857	4205	951	-9.0	200	0	1	1335.001	0	
137	1	1350.282	0	460	1105	2857	4205	951	-9.0	200	0	0	1350.638	1	
138	0	1357.902	0	460	1105	2857	4205	901	-15.0	149	0	1	1358.686	0	
139	1	1369.768	0	460	1105	2857	4205	901	-15.0	149	0	0	1371.097	1	
140	0	1378.277	0	730	2058	2857	4205	851	-17.0	263	1	1	1379.189	1	
141	0	1383.275	1	460	1105	2857	4205	551	-15.0	330	0	1	1387.735	0	
142	1	1393.839	0	460	1105	2857	4205	551	-15.0	330	0	0	1394.953	1	
143	0	1402.607	0	460	1105	2857	4205	651	-9.0	149	0	0	1403.438	1	
144	0	1411.051	0	730	2058	2857	4205	801	-11.0	459	1	1	1412.017	1	
145	0	1415.480	0	460	1105	2857	4205	901	-15.0	200	0	0	1416.558	1	
146	0	1424.369	0	460	1105	2857	4205	701	-15.0	263	0	1	1425.726	0	
147	1	1440.463	0	460	1105	2857	4205	701	-15.0	263	0	0	1441.511	1	
148	0	1448.618	0	730	2058	2857	4205	951	-17.0	200	1	1	1449.208	1	
149	0	1454.267	0	460	1105	2857	4205	601	-15.0	330	0	0	1455.130	1	
150	0	1466.307	0	730	2058	2857	4205	751	-17.0	149	1	1	1467.014	1	
151	0	1473.246	0	730	2058	2857	4205	851	-17.0	459	1	1	1474.147	1	
152	0	1480.278	0	730	2058	2857	4205	501	-11.0	263	1	1	1481.628	1	
153	0	1488.144	0	460	1105	2857	4205	901	-15.0	263	0	0	1489.276	1	
154	0	1493.737	1	730	2058	2857	4205	551	-17.0	459	1	1	1497.043	1	
155	0	1503.515	0	460	1105	2857	4205	1001	-9.0	200	0	1	1504.673	0	
156	1	1517.926	0	460	1105	2857	4205	1001	-9.0	200	0	0	1518.930	1	
157	0	1526.669	0	460	1105	2857	4205	851	-9.0	149	0	0	1527.511	1	
158	0	1531.114	0	730	2058	2857	4205	701	-11.0	330	1	1	1531.685	1	
159	0	1538.228	1	460	1105	2857	4205	751	-9.0	149	0	1	1544.159	0	
160	1	1555.815	0	460	1105	2857	4205	751	-9.0	149	0	0	1556.629	1	
161	0	1563.351	0	730	2058	2857	4205	951	-11.0	263	1	1	1564.170	1	
162	0	1569.636	0	730	2058	2857	4205	651	-17.0	200	1	1	1570.593	1	
163	0	1576.387	0	730	2058	2857	4205	801	-11.0	330	1	1	1577.606	1	
164	0	1582.599	0	460	1105	2857	4205	501	-9.0	459	0	0	1583.566	1	
165	0	1590.451	0	730	2058	2857	4205	551	-17.0	149	1	1	1591.329	1	
166	0	1597.118	0	460	1105	2857	4205	501	-9.0	200	0	1	1598.635	0	
