Trial	CorrectionTrial?	StartTime	CenterReward?	F1	F2	F3	F4	HoldTime	Atten	Pitch	Side	Response	RespTime	Correct	
1	0	33.3691	0	730	2058	2857	4205	507	-14.0	263	1	0	34.6882	0	
2	1	41.3263	0	730	2058	2857	4205	507	-14.0	263	1	0	42.2845	0	
3	1	56.1737	0	730	2058	2857	4205	507	-14.0	263	1	0	57.1414	0	
4	1	63.8014	0	730	2058	2857	4205	507	-14.0	263	1	1	64.8179	1	
5	0	66.3468	1	460	1105	2857	4205	510	-12.0	149	0	0	69.4079	1	
6	0	79.3600	1	460	1105	2857	4205	508	-12.0	200	0	0	83.9727	1	
7	0	92.5244	0	460	1105	2857	4205	504	-12.0	459	0	0	92.9962	1	
8	0	100.8967	0	460	1105	2857	4205	511	-12.0	330	0	0	101.5033	1	
9	0	108.5063	0	730	2058	2857	4205	505	-14.0	149	1	1	108.8371	1	
10	0	123.7541	0	579	1508	2857	4205	501	-12.0	200	-1	1	124.6291	-1	
11	0	126.2856	0	730	2058	2857	4205	502	-14.0	200	1	1	126.9612	1	
12	0	134.5703	0	730	2058	2857	4205	509	-14.0	330	1	1	135.4649	1	
13	0	145.6395	0	460	1105	2857	4205	506	-12.0	263	0	0	146.2938	1	
14	0	153.6276	0	730	2058	2857	4205	507	-14.0	263	1	0	154.6982	0	
15	1	162.3222	0	730	2058	2857	4205	507	-14.0	263	1	1	163.0423	1	
16	0	179.7115	0	730	2058	2857	4205	505	-14.0	330	1	1	180.5065	1	
17	0	183.4493	0	730	2058	2857	4205	504	-14.0	459	1	0	183.9452	0	
18	1	192.8852	0	730	2058	2857	4205	504	-14.0	459	1	0	193.7527	0	
19	1	207.2820	0	730	2058	2857	4205	504	-14.0	459	1	0	207.8812	0	
20	1	217.0127	1	730	2058	2857	4205	504	-14.0	459	1	1	221.4477	1	
21	0	222.9954	0	460	1105	2857	4205	509	-12.0	149	0	0	223.5897	1	
22	0	231.7911	0	460	1105	2857	4205	510	-12.0	200	0	0	233.0130	1	
23	0	238.5667	0	579	1508	2857	4205	501	-12.0	200	-1	0	238.9872	-1	
24	0	246.1563	0	730	2058	2857	4205	511	-14.0	459	1	1	246.9619	1	
25	0	254.9221	0	730	2058	2857	4205	508	-14.0	149	1	0	256.1695	0	
26	1	264.9849	1	730	2058	2857	4205	508	-14.0	149	1	0	269.9009	0	
27	1	284.1889	0	730	2058	2857	4205	508	-14.0	149	1	0	285.1404	0	
28	1	292.5256	0	730	2058	2857	4205	508	-14.0	149	1	1	293.3011	1	
29	0	294.9993	0	730	2058	2857	4205	502	-14.0	263	1	1	295.9002	1	
30	0	312.1397	0	730	2058	2857	4205	506	-14.0	200	1	0	313.0693	0	
31	1	319.4139	0	730	2058	2857	4205	506	-14.0	200	1	1	320.1551	1	
32	0	321.3962	1	460	1105	2857	4205	511	-12.0	263	0	1	326.1681	0	
33	1	332.7903	0	460	1105	2857	4205	511	-12.0	263	0	0	333.1587	1	
34	0	339.7253	0	460	1105	2857	4205	505	-12.0	200	0	0	340.4235	1	
35	0	346.2493	0	730	2058	2857	4205	510	-14.0	330	1	1	346.8401	1	
36	0	350.6400	0	460	1105	2857	4205	506	-12.0	459	0	0	351.2527	1	
37	0	356.7986	0	460	1105	2857	4205	503	-12.0	149	0	0	356.9367	1	
38	0	363.4267	0	460	1105	2857	4205	501	-12.0	200	0	0	363.8938	1	
39	0	372.2472	0	460	1105	2857	4205	508	-12.0	263	0	0	372.9265	1	
40	0	380.2209	0	730	2058	2857	4205	509	-14.0	459	1	1	380.6755	1	
41	0	397.4053	0	460	1105	2857	4205	507	-12.0	149	0	0	397.9183	1	
42	0	403.1848	0	460	1105	2857	4205	504	-12.0	330	0	0	403.5389	1	
43	0	410.3034	0	460	1105	2857	4205	501	-12.0	263	0	0	410.9785	1	
44	0	418.2291	0	730	2058	2857	4205	503	-14.0	200	1	1	418.7170	1	
45	0	429.0065	0	460	1105	2857	4205	510	-12.0	330	0	0	429.5881	1	
46	0	439.0037	0	460	1105	2857	4205	505	-12.0	459	0	0	439.6555	1	
47	0	444.9723	0	579	1508	2857	4205	501	-12.0	200	-1	0	445.0322	-1	
48	0	450.4536	0	730	2058	2857	4205	507	-14.0	459	1	1	451.1618	1	
49	0	452.6423	0	730	2058	2857	4205	509	-14.0	263	1	1	453.4132	1	
50	0	457.1192	0	730	2058	2857	4205	504	-14.0	330	1	0	457.6988	0	
51	1	465.6214	0	730	2058	2857	4205	504	-14.0	330	1	0	466.1277	0	
52	1	483.3683	0	730	2058	2857	4205	504	-14.0	330	1	0	484.5496	0	
53	1	490.4772	0	730	2058	2857	4205	504	-14.0	330	1	1	491.2147	1	
54	0	492.6922	1	730	2058	2857	4205	511	-14.0	149	1	1	497.2595	1	
55	0	512.7938	0	730	2058	2857	4205	506	-14.0	200	1	0	513.6023	0	
56	1	521.8278	0	730	2058	2857	4205	506	-14.0	200	1	0	522.5152	0	
57	1	529.8128	0	730	2058	2857	4205	506	-14.0	200	1	1	531.0402	1	
58	0	532.4750	0	460	1105	2857	4205	502	-12.0	149	0	0	533.3531	1	
59	0	539.5740	0	730	2058	2857	4205	501	-14.0	200	1	1	540.2759	1	
60	0	545.2648	0	460	1105	2857	4205	506	-12.0	330	0	0	545.7320	1	
61	0	550.9214	0	730	2058	2857	4205	509	-14.0	459	1	0	551.4096	0	
62	1	557.5633	0	730	2058	2857	4205	509	-14.0	459	1	1	558.1677	1	
63	0	562.0008	0	460	1105	2857	4205	503	-12.0	263	0	0	562.5523	1	
64	0	568.1010	0	460	1105	2857	4205	508	-12.0	263	0	0	569.0269	1	
65	0	576.4388	0	730	2058	2857	4205	511	-14.0	149	1	1	576.9216	1	
66	0	581.4560	0	460	1105	2857	4205	504	-12.0	200	0	0	582.0030	1	
67	0	587.8481	0	730	2058	2857	4205	510	-14.0	459	1	1	588.4417	1	
68	0	592.8247	1	730	2058	2857	4205	505	-14.0	330	1	0	593.4902	0	
69	1	600.1152	0	730	2058	2857	4205	505	-14.0	330	1	0	600.8293	0	
70	1	616.5910	0	730	2058	2857	4205	505	-14.0	330	1	1	617.5658	1	
71	0	619.0997	0	460	1105	2857	4205	504	-12.0	263	0	0	619.5154	1	
72	0	625.3402	0	730	2058	2857	4205	502	-14.0	459	1	0	626.0511	0	
73	1	639.3672	0	730	2058	2857	4205	502	-14.0	459	1	0	639.7617	0	
74	1	646.7915	0	730	2058	2857	4205	502	-14.0	459	1	0	647.4626	0	
75	1	653.4495	0	730	2058	2857	4205	502	-14.0	459	1	0	654.1250	0	
76	1	660.7619	0	730	2058	2857	4205	502	-14.0	459	1	0	661.3578	0	
77	1	667.7205	0	730	2058	2857	4205	502	-14.0	459	1	1	668.4005	1	
78	0	669.7583	1	460	1105	2857	4205	503	-12.0	200	0	0	670.3046	1	
79	0	675.5935	0	460	1105	2857	4205	508	-12.0	149	0	0	679.6023	1	
80	0	685.4488	0	730	2058	2857	4205	505	-14.0	330	1	1	686.2686	1	
81	0	693.7829	0	579	1508	2857	4205	501	-12.0	200	-1	0	694.7037	-1	
82	0	699.5112	0	579	1508	2857	4205	501	-12.0	200	-1	0	699.9877	-1	
83	0	705.9979	0	460	1105	2857	4205	509	-12.0	149	0	0	706.5178	1	
84	0	713.7607	0	460	1105	2857	4205	511	-12.0	263	0	0	714.2200	1	
85	0	720.4251	0	460	1105	2857	4205	506	-12.0	330	0	0	721.2048	1	
86	0	727.8387	0	730	2058	2857	4205	504	-14.0	200	1	1	728.5092	1	
87	0	735.7314	0	460	1105	2857	4205	509	-12.0	330	0	0	736.3219	1	
88	0	742.1066	0	460	1105	2857	4205	505	-12.0	263	0	0	742.7212	1	
89	0	748.9363	0	730	2058	2857	4205	510	-14.0	149	1	1	749.3618	1	
90	0	757.2742	1	460	1105	2857	4205	501	-12.0	459	0	0	757.7525	1	
91	0	763.0433	0	730	2058	2857	4205	511	-14.0	330	1	0	767.4748	0	
92	1	773.1081	0	730	2058	2857	4205	511	-14.0	330	1	1	773.6585	1	
93	0	780.2776	0	730	2058	2857	4205	506	-14.0	149	1	1	781.0406	1	
94	0	786.1619	0	730	2058	2857	4205	503	-14.0	263	1	0	786.8214	0	
95	1	794.0085	0	730	2058	2857	4205	503	-14.0	263	1	1	794.7810	1	
96	0	799.8888	1	730	2058	2857	4205	508	-14.0	200	1	0	800.5440	0	
97	1	808.9042	0	730	2058	2857	4205	508	-14.0	200	1	0	809.5989	0	
98	1	818.7114	0	730	2058	2857	4205	508	-14.0	200	1	0	819.9577	0	
99	1	837.3735	0	730	2058	2857	4205	508	-14.0	200	1	1	838.0150	1	
100	0	843.4413	0	460	1105	2857	4205	502	-12.0	459	0	0	844.0964	1	
101	0	850.2415	0	730	2058	2857	4205	505	-14.0	149	1	0	850.6997	0	
