Trial	CorrectionTrial?	StartTime	CenterReward?	F1	F2	F3	F4	HoldTime	Atten	Pitch	Side	Response	RespTime	Correct	
1	0	11.6834	0	460	1105	2857	4205	651	-12.0	149	0	1	12.3268	0	
2	1	18.1195	0	460	1105	2857	4205	651	-12.0	149	0	0	18.8017	1	
3	0	24.7954	0	730	2058	2857	4205	751	-14.0	330	1	1	25.1021	1	
4	0	30.4810	0	730	2058	2857	4205	851	-14.0	459	1	1	30.6825	1	
5	0	36.7283	0	460	1105	2857	4205	801	-12.0	263	0	1	37.1086	0	
6	1	45.5680	0	460	1105	2857	4205	801	-12.0	263	0	0	45.9046	1	
7	0	54.6261	0	579	1508	2857	4205	501	-12.0	200	-1	1	54.9060	-1	
8	0	60.7050	0	730	2058	2857	4205	701	-14.0	459	1	1	61.0332	1	
9	0	66.3187	0	730	2058	2857	4205	601	-14.0	200	1	1	66.7145	1	
10	0	72.2364	0	460	1105	2857	4205	901	-12.0	149	0	0	72.6064	1	
11	0	86.9065	0	460	1105	2857	4205	1001	-12.0	263	0	1	87.3869	0	
12	1	94.5144	0	460	1105	2857	4205	1001	-12.0	263	0	0	94.8809	1	
13	0	103.9479	0	460	1105	2857	4205	501	-12.0	330	0	0	104.4153	1	
14	0	110.4295	0	730	2058	2857	4205	551	-14.0	459	1	1	110.7689	1	
15	0	116.1709	0	460	1105	2857	4205	751	-12.0	330	0	0	116.3834	1	
16	0	129.1193	0	730	2058	2857	4205	501	-14.0	149	1	1	129.5583	1	
17	0	136.4194	1	730	2058	2857	4205	601	-14.0	263	1	1	136.7612	1	
18	0	142.7013	0	730	2058	2857	4205	851	-14.0	200	1	1	145.2504	1	
19	0	150.7831	0	730	2058	2857	4205	651	-14.0	459	1	1	151.8007	1	
20	0	158.0763	0	460	1105	2857	4205	951	-12.0	149	0	0	158.4495	1	
21	0	173.8345	1	730	2058	2857	4205	801	-14.0	263	1	1	173.9851	1	
22	0	178.9932	1	460	1105	2857	4205	701	-12.0	330	0	1	186.0071	0	
23	1	191.9461	0	460	1105	2857	4205	701	-12.0	330	0	0	192.3433	1	
24	0	200.9713	0	579	1508	2857	4205	501	-12.0	200	-1	1	201.6283	-1	
25	0	206.7962	0	460	1105	2857	4205	901	-12.0	459	0	0	207.1449	1	
26	0	210.8832	0	460	1105	2857	4205	551	-12.0	330	0	0	211.4279	1	
27	0	218.4423	0	730	2058	2857	4205	601	-14.0	200	1	1	218.8162	1	
28	0	234.7944	0	730	2058	2857	4205	1001	-14.0	149	1	1	235.0854	1	
29	0	243.8776	0	579	1508	2857	4205	501	-12.0	200	-1	1	244.5853	-1	
30	0	249.5478	0	460	1105	2857	4205	801	-12.0	459	0	0	250.0973	1	
31	0	256.0633	0	460	1105	2857	4205	751	-12.0	149	0	0	256.4175	1	
32	0	262.3734	0	460	1105	2857	4205	501	-12.0	330	0	0	262.8021	1	
33	0	268.7391	0	730	2058	2857	4205	951	-14.0	200	1	1	268.9033	1	
34	0	276.3028	0	460	1105	2857	4205	851	-12.0	263	0	0	276.4535	1	
35	0	289.3676	0	730	2058	2857	4205	951	-14.0	149	1	1	289.7018	1	
36	0	295.6592	0	460	1105	2857	4205	651	-12.0	200	0	1	296.4254	0	
37	1	302.4455	0	460	1105	2857	4205	651	-12.0	200	0	0	303.2529	1	
38	0	308.4277	0	730	2058	2857	4205	601	-14.0	330	1	1	308.8710	1	
39	0	320.2586	0	730	2058	2857	4205	1001	-14.0	263	1	1	320.9293	1	
40	0	325.6098	1	579	1508	2857	4205	501	-12.0	200	-1	1	326.1492	-1	
41	0	330.8986	0	460	1105	2857	4205	801	-12.0	149	0	0	336.6245	1	
42	0	354.0370	0	730	2058	2857	4205	901	-14.0	200	1	1	354.2718	1	
43	0	359.2395	0	460	1105	2857	4205	501	-12.0	330	0	0	359.6995	1	
44	0	363.0441	0	460	1105	2857	4205	551	-12.0	263	0	0	363.4289	1	
45	0	369.5990	0	730	2058	2857	4205	701	-14.0	459	1	0	370.4588	0	
46	1	376.9906	0	730	2058	2857	4205	701	-14.0	459	1	1	377.3758	1	
47	0	382.7890	0	460	1105	2857	4205	501	-12.0	263	0	0	383.2986	1	
48	0	389.3302	0	730	2058	2857	4205	701	-14.0	459	1	1	389.6871	1	
49	0	394.1510	0	460	1105	2857	4205	651	-12.0	330	0	1	394.6704	0	
50	1	404.0269	0	460	1105	2857	4205	651	-12.0	330	0	0	404.4562	1	
51	0	411.4468	0	730	2058	2857	4205	951	-14.0	200	1	1	411.7982	1	
52	0	416.3700	0	730	2058	2857	4205	901	-14.0	149	1	1	416.7259	1	
53	0	425.2676	0	460	1105	2857	4205	1001	-12.0	149	0	0	425.7661	1	
54	0	430.4340	0	460	1105	2857	4205	601	-12.0	263	0	0	430.8741	1	
55	0	437.9935	1	460	1105	2857	4205	551	-12.0	459	0	0	443.2401	1	
56	0	450.2732	0	460	1105	2857	4205	751	-12.0	330	0	0	450.8033	1	
57	0	456.4262	0	579	1508	2857	4205	501	-12.0	200	-1	1	456.9946	-1	
58	0	462.8337	0	460	1105	2857	4205	801	-12.0	330	0	0	463.2528	1	
59	0	478.4471	0	730	2058	2857	4205	901	-14.0	149	1	0	478.7727	0	
60	1	487.5645	0	730	2058	2857	4205	901	-14.0	149	1	1	487.9473	1	
61	0	497.8203	0	730	2058	2857	4205	1001	-14.0	200	1	1	498.1423	1	
62	0	504.1528	0	730	2058	2857	4205	951	-14.0	263	1	1	504.4876	1	
63	0	510.0008	0	730	2058	2857	4205	551	-14.0	459	1	0	510.6384	0	
64	1	517.5476	0	730	2058	2857	4205	551	-14.0	459	1	1	518.0302	1	
65	0	522.8419	0	460	1105	2857	4205	501	-12.0	149	0	0	523.2298	1	
66	0	534.0806	0	579	1508	2857	4205	501	-12.0	200	-1	1	534.7447	-1	
67	0	539.7780	1	730	2058	2857	4205	851	-14.0	330	1	1	540.0245	1	
68	0	546.3210	0	730	2058	2857	4205	751	-14.0	459	1	1	549.9788	1	
69	0	555.0486	0	730	2058	2857	4205	701	-14.0	263	1	1	556.0866	1	
70	0	562.4306	0	460	1105	2857	4205	801	-12.0	200	0	0	562.8038	1	
71	0	566.4521	0	460	1105	2857	4205	751	-12.0	330	0	0	566.6501	1	
72	0	572.0205	0	730	2058	2857	4205	1001	-14.0	149	1	1	572.2827	1	
73	0	576.9201	0	730	2058	2857	4205	551	-14.0	459	1	1	577.5044	1	
74	0	581.9475	0	460	1105	2857	4205	501	-12.0	263	0	0	582.6543	1	
75	0	593.4322	0	460	1105	2857	4205	901	-12.0	459	0	0	593.7723	1	
76	0	598.3242	0	460	1105	2857	4205	601	-12.0	200	0	0	598.7683	1	
77	0	605.6640	0	460	1105	2857	4205	651	-12.0	149	0	0	605.9520	1	
78	0	611.6270	1	730	2058	2857	4205	951	-14.0	263	1	1	611.7804	1	
79	0	616.6714	0	730	2058	2857	4205	701	-14.0	330	1	1	622.4280	1	
80	0	627.3693	0	730	2058	2857	4205	951	-14.0	459	1	1	627.6594	1	
81	0	633.5332	0	460	1105	2857	4205	601	-12.0	263	0	0	634.5058	1	
82	0	641.7145	0	460	1105	2857	4205	1001	-12.0	330	0	0	641.8912	1	
83	0	653.0370	0	460	1105	2857	4205	501	-12.0	149	0	0	654.3016	1	
84	0	663.1340	0	730	2058	2857	4205	701	-14.0	200	1	1	663.3800	1	
85	0	672.5407	0	730	2058	2857	4205	851	-14.0	149	1	1	673.1543	1	
86	0	678.0067	0	579	1508	2857	4205	501	-12.0	200	-1	1	678.6253	-1	
87	0	684.1224	0	460	1105	2857	4205	551	-12.0	459	0	0	684.6622	1	
88	0	689.3721	0	460	1105	2857	4205	651	-12.0	330	0	0	689.7372	1	
89	0	699.7470	0	460	1105	2857	4205	801	-12.0	263	0	1	700.4125	0	
90	1	718.4441	0	460	1105	2857	4205	801	-12.0	263	0	0	719.0576	1	
91	0	722.7653	0	730	2058	2857	4205	751	-14.0	330	1	1	723.0564	1	
92	0	727.6941	0	730	2058	2857	4205	851	-14.0	200	1	1	728.0040	1	
93	0	733.2382	0	460	1105	2857	4205	801	-12.0	459	0	0	733.7166	1	
94	0	739.1468	0	730	2058	2857	4205	551	-14.0	149	1	1	739.6481	1	
95	0	755.4168	0	460	1105	2857	4205	1001	-12.0	263	0	0	756.0643	1	
96	0	761.3615	0	579	1508	2857	4205	501	-12.0	200	-1	1	762.1265	-1	
97	0	766.4052	0	730	2058	2857	4205	651	-14.0	459	1	1	766.9093	1	
98	0	772.4193	0	730	2058	2857	4205	601	-14.0	200	1	1	773.1896	1	
99	0	781.8711	0	460	1105	2857	4205	951	-12.0	330	0	0	782.6010	1	
100	0	792.1363	0	730	2058	2857	4205	701	-14.0	263	1	1	792.5096	1	
101	0	797.0619	0	730	2058	2857	4205	601	-14.0	330	1	1	797.5671	1	
102	0	804.7284	0	460	1105	2857	4205	651	-12.0	459	0	0	805.4652	1	
103	0	809.7077	0	579	1508	2857	4205	501	-12.0	200	-1	0	810.4002	-1	
104	0	816.1823	0	730	2058	2857	4205	551	-14.0	149	1	1	816.5878	1	
105	0	825.9277	0	730	2058	2857	4205	901	-14.0	200	1	1	826.2954	1	
106	0	830.9270	0	460	1105	2857	4205	701	-12.0	459	0	0	831.1036	1	
107	0	840.0482	0	730	2058	2857	4205	951	-14.0	263	1	1	840.3906	1	
108	0	844.2608	0	460	1105	2857	4205	751	-12.0	149	0	0	844.7556	1	
109	0	852.0833	0	460	1105	2857	4205	851	-12.0	200	0	0	852.3390	1	
110	0	858.7103	0	460	1105	2857	4205	1001	-12.0	330	0	0	859.1682	1	
111	0	864.4309	0	579	1508	2857	4205	501	-12.0	200	-1	1	864.8846	-1	
112	0	873.8545	0	460	1105	2857	4205	751	-12.0	200	0	0	874.1067	1	
113	0	879.6784	0	730	2058	2857	4205	951	-14.0	459	1	0	879.9858	0	
114	1	886.1640	0	730	2058	2857	4205	951	-14.0	459	1	1	886.3773	1	
115	0	891.8274	0	730	2058	2857	4205	501	-14.0	263	1	1	892.2638	1	
116	0	900.1993	0	730	2058	2857	4205	651	-14.0	149	1	1	900.6764	1	
117	0	908.9341	0	460	1105	2857	4205	901	-12.0	263	0	0	909.1532	1	
118	0	914.1248	0	460	1105	2857	4205	701	-12.0	459	0	0	914.4542	1	
119	0	920.6210	0	730	2058	2857	4205	551	-14.0	149	1	1	921.2025	1	
120	0	931.8084	0	730	2058	2857	4205	801	-14.0	330	1	1	932.1748	1	
121	0	939.1671	0	460	1105	2857	4205	1001	-12.0	200	0	0	939.6009	1	
122	0	945.1372	0	730	2058	2857	4205	901	-14.0	459	1	1	945.7100	1	
123	0	951.0215	0	460	1105	2857	4205	801	-12.0	149	0	0	951.3213	1	
124	0	958.0728	0	730	2058	2857	4205	701	-14.0	330	1	1	958.8036	1	
125	0	962.3552	0	460	1105	2857	4205	851	-12.0	263	0	0	962.6565	1	
126	0	970.6444	0	460	1105	2857	4205	601	-12.0	200	0	0	971.0572	1	
127	0	976.4783	0	730	2058	2857	4205	551	-14.0	330	1	1	977.6104	1	
128	0	991.1190	0	460	1105	2857	4205	1001	-12.0	459	0	0	992.3744	1	
129	0	998.1754	0	730	2058	2857	4205	501	-14.0	149	1	1	998.8755	1	
130	0	1003.5130	0	579	1508	2857	4205	501	-12.0	200	-1	1	1004.9223	-1	
131	0	1011.8626	1	460	1105	2857	4205	951	-12.0	200	0	1	1015.4690	0	
132	1	1026.8771	1	460	1105	2857	4205	951	-12.0	200	0	0	1027.2550	1	
133	0	1031.2191	0	730	2058	2857	4205	851	-14.0	330	1	1	1036.9928	1	
134	0	1041.2837	1	460	1105	2857	4205	551	-12.0	263	0	0	1041.7485	1	
135	0	1048.2518	0	730	2058	2857	4205	651	-14.0	459	1	0	1052.0269	0	
136	1	1059.7542	0	730	2058	2857	4205	651	-14.0	459	1	1	1060.1770	1	
137	0	1064.7880	0	579	1508	2857	4205	501	-12.0	200	-1	1	1065.6367	-1	
138	0	1069.7495	0	460	1105	2857	4205	701	-12.0	200	0	0	1070.3129	1	
139	0	1079.4272	0	460	1105	2857	4205	601	-12.0	263	0	0	1079.8662	1	
140	0	1085.7077	0	730	2058	2857	4205	801	-14.0	149	1	1	1086.3423	1	
141	0	1095.7473	0	460	1105	2857	4205	901	-12.0	200	0	0	1096.0210	1	
142	0	1101.2639	0	730	2058	2857	4205	1001	-14.0	330	1	0	1101.6707	0	
143	1	1141.8738	0	730	2058	2857	4205	1001	-14.0	330	1	1	1144.9107	1	
144	0	1149.2160	0	460	1105	2857	4205	751	-12.0	459	0	0	1150.2260	1	
145	0	1160.3177	0	730	2058	2857	4205	601	-14.0	330	1	1	1160.5059	1	
146	0	1165.1921	0	730	2058	2857	4205	501	-14.0	149	1	1	1165.8175	1	
