Trial	CorrectionTrial?	StartTime	CenterReward?	F1	F2	F3	F4	HoldTime	Atten	Pitch	Side	Response	RespTime	Correct	
1	0	7.3976	0	730	2058	2857	4205	511	-14.0	200	1	1	8.3400	1	
2	0	15.3352	0	730	2058	2857	4205	503	-14.0	149	1	1	15.8711	1	
3	0	21.5589	1	460	1105	2857	4205	501	-12.0	263	0	1	26.0806	0	
4	1	33.3917	0	460	1105	2857	4205	501	-12.0	263	0	0	33.8295	1	
5	0	40.0479	0	730	2058	2857	4205	504	-14.0	459	1	1	40.9662	1	
6	0	44.6713	0	579	1508	2857	4205	501	-12.0	200	-1	1	45.2350	-1	
7	0	49.6423	1	730	2058	2857	4205	507	-14.0	200	1	1	50.5376	1	
8	0	55.8001	0	460	1105	2857	4205	502	-12.0	330	0	1	59.4098	0	
9	1	65.0614	0	460	1105	2857	4205	502	-12.0	330	0	0	65.9267	1	
10	0	71.8440	0	460	1105	2857	4205	506	-12.0	459	0	0	72.2795	1	
11	0	79.4946	0	460	1105	2857	4205	510	-12.0	149	0	0	79.9382	1	
12	0	85.8157	0	460	1105	2857	4205	508	-12.0	263	0	0	86.2354	1	
13	0	92.9096	0	730	2058	2857	4205	506	-14.0	459	1	1	93.4628	1	
14	0	99.0395	0	460	1105	2857	4205	508	-12.0	149	0	0	99.6153	1	
15	0	106.2188	0	460	1105	2857	4205	501	-12.0	330	0	0	106.6281	1	
16	0	112.3447	0	460	1105	2857	4205	504	-12.0	200	0	0	112.8541	1	
17	0	118.9650	0	730	2058	2857	4205	502	-14.0	263	1	1	119.6633	1	
18	0	125.9222	0	730	2058	2857	4205	505	-14.0	330	1	0	126.3447	0	
19	1	132.6725	0	730	2058	2857	4205	505	-14.0	330	1	1	133.2344	1	
20	0	138.2672	0	730	2058	2857	4205	510	-14.0	459	1	1	138.8056	1	
21	0	143.8042	0	460	1105	2857	4205	507	-12.0	149	0	0	144.2360	1	
22	0	151.3725	1	460	1105	2857	4205	503	-12.0	200	0	0	151.9446	1	
23	0	158.4857	0	579	1508	2857	4205	501	-12.0	200	-1	0	163.0654	-1	
24	0	169.0629	0	730	2058	2857	4205	501	-14.0	330	1	0	169.5747	0	
25	1	175.9653	0	730	2058	2857	4205	501	-14.0	330	1	1	176.5762	1	
26	0	181.8440	0	460	1105	2857	4205	509	-12.0	200	0	0	182.1944	1	
27	0	188.4620	0	730	2058	2857	4205	507	-14.0	263	1	1	188.9399	1	
28	0	193.1350	1	730	2058	2857	4205	505	-14.0	459	1	1	197.0457	1	
29	0	201.7886	0	730	2058	2857	4205	504	-14.0	149	1	1	203.0749	1	
30	0	208.2850	0	460	1105	2857	4205	508	-12.0	330	0	0	208.7868	1	
31	0	214.8908	1	460	1105	2857	4205	502	-12.0	149	0	0	215.2865	1	
32	0	219.8266	0	460	1105	2857	4205	503	-12.0	200	0	0	224.9395	1	
33	0	231.9552	0	730	2058	2857	4205	506	-14.0	459	1	0	232.1889	0	
34	1	241.9097	0	730	2058	2857	4205	506	-14.0	459	1	1	242.2429	1	
35	0	247.1663	0	460	1105	2857	4205	511	-12.0	263	0	0	247.6429	1	
36	0	253.2056	0	730	2058	2857	4205	506	-14.0	149	1	1	253.6279	1	
37	0	259.4095	0	730	2058	2857	4205	503	-14.0	263	1	1	260.1403	1	
38	0	265.6028	1	730	2058	2857	4205	507	-14.0	200	1	1	271.6262	1	
39	0	277.2745	0	730	2058	2857	4205	509	-14.0	459	1	1	278.1561	1	
40	0	284.3842	0	579	1508	2857	4205	501	-12.0	200	-1	1	285.2880	-1	
41	0	289.3869	0	460	1105	2857	4205	508	-12.0	149	0	0	290.2138	1	
42	0	296.8386	1	460	1105	2857	4205	501	-12.0	459	0	0	297.2367	1	
43	0	303.7434	0	730	2058	2857	4205	510	-14.0	200	1	0	306.5510	0	
44	1	313.4497	0	730	2058	2857	4205	510	-14.0	200	1	1	313.9137	1	
45	0	319.1057	0	460	1105	2857	4205	505	-12.0	330	0	1	319.8608	0	
46	1	325.4610	0	460	1105	2857	4205	505	-12.0	330	0	0	326.1936	1	
47	0	331.5697	0	460	1105	2857	4205	502	-12.0	263	0	0	331.9809	1	
48	0	337.0564	0	730	2058	2857	4205	505	-14.0	149	1	1	337.7625	1	
49	0	342.5873	0	730	2058	2857	4205	509	-14.0	200	1	1	343.3228	1	
50	0	347.6708	0	730	2058	2857	4205	507	-14.0	330	1	1	348.4340	1	
51	0	353.6459	0	730	2058	2857	4205	506	-14.0	263	1	1	354.5511	1	
52	0	359.0483	0	579	1508	2857	4205	501	-12.0	200	-1	0	360.0019	-1	
53	0	366.8728	0	730	2058	2857	4205	503	-14.0	200	1	1	367.6919	1	
54	0	372.3753	0	460	1105	2857	4205	502	-12.0	459	0	0	372.7486	1	
55	0	379.2823	0	460	1105	2857	4205	504	-12.0	149	0	0	379.8133	1	
56	0	386.9347	0	730	2058	2857	4205	511	-14.0	263	1	1	387.5508	1	
57	0	392.8553	0	730	2058	2857	4205	510	-14.0	330	1	0	393.3614	0	
58	1	400.4469	0	730	2058	2857	4205	510	-14.0	330	1	1	401.1503	1	
59	0	406.5701	0	460	1105	2857	4205	503	-12.0	263	0	0	407.1604	1	
60	0	416.7389	0	460	1105	2857	4205	511	-12.0	459	0	0	417.4051	1	
61	0	422.3096	0	460	1105	2857	4205	506	-12.0	330	0	0	422.8861	1	
62	0	429.2759	0	460	1105	2857	4205	509	-12.0	200	0	0	430.0779	1	
63	0	435.1792	0	730	2058	2857	4205	504	-14.0	149	1	1	435.7567	1	
64	0	439.9645	1	460	1105	2857	4205	507	-12.0	149	0	0	440.3640	1	
65	0	446.4110	1	460	1105	2857	4205	510	-12.0	459	0	0	453.0818	1	
66	0	461.5444	0	460	1105	2857	4205	508	-12.0	263	0	0	462.1795	1	
67	0	467.3825	0	730	2058	2857	4205	501	-14.0	330	1	1	467.7235	1	
68	0	473.1927	0	460	1105	2857	4205	502	-12.0	200	0	0	473.5902	1	
69	0	479.9522	0	460	1105	2857	4205	508	-12.0	149	0	0	480.5385	1	
70	0	486.6953	0	460	1105	2857	4205	510	-12.0	330	0	0	487.3649	1	
71	0	492.8227	1	730	2058	2857	4205	511	-14.0	459	1	1	493.2942	1	
72	0	498.0022	1	460	1105	2857	4205	509	-12.0	263	0	1	504.5388	0	
73	1	511.5933	0	460	1105	2857	4205	509	-12.0	263	0	0	512.4136	1	
74	0	518.2597	0	579	1508	2857	4205	501	-12.0	200	-1	1	519.2267	-1	
75	0	524.0309	0	730	2058	2857	4205	503	-14.0	330	1	0	524.4516	0	
76	1	535.0154	0	730	2058	2857	4205	503	-14.0	330	1	1	535.6542	1	
77	0	540.4656	0	730	2058	2857	4205	507	-14.0	459	1	1	541.3905	1	
78	0	546.2709	1	730	2058	2857	4205	505	-14.0	200	1	1	549.5776	1	
79	0	553.8270	0	730	2058	2857	4205	501	-14.0	263	1	1	555.4858	1	
80	0	560.6171	0	460	1105	2857	4205	502	-12.0	149	0	0	561.2543	1	
81	0	571.1890	0	730	2058	2857	4205	504	-14.0	459	1	1	571.7973	1	
82	0	576.0049	0	579	1508	2857	4205	501	-12.0	200	-1	1	576.7520	-1	
83	0	581.0071	0	730	2058	2857	4205	503	-14.0	200	1	1	581.8416	1	
84	0	588.4462	0	730	2058	2857	4205	507	-14.0	263	1	1	589.5096	1	
85	0	594.3113	0	730	2058	2857	4205	502	-14.0	330	1	1	595.2322	1	
86	0	599.9038	0	460	1105	2857	4205	509	-12.0	149	0	0	600.1890	1	
87	0	606.5281	0	460	1105	2857	4205	505	-12.0	330	0	0	606.9875	1	
88	0	614.5705	0	460	1105	2857	4205	511	-12.0	459	0	0	615.0188	1	
89	0	621.4488	0	730	2058	2857	4205	510	-14.0	200	1	1	622.1758	1	
90	0	625.6935	0	460	1105	2857	4205	508	-12.0	263	0	0	626.1497	1	
91	0	632.9537	0	730	2058	2857	4205	510	-14.0	200	1	1	633.4734	1	
92	0	638.4088	0	730	2058	2857	4205	501	-14.0	263	1	1	639.1946	1	
93	0	644.1575	0	730	2058	2857	4205	508	-14.0	330	1	1	645.5340	1	
94	0	651.1824	0	460	1105	2857	4205	504	-12.0	459	0	0	651.4177	1	
95	0	656.9791	0	460	1105	2857	4205	511	-12.0	149	0	0	657.3317	1	
96	0	662.9319	0	460	1105	2857	4205	503	-12.0	459	0	0	663.5391	1	
97	0	669.0292	1	460	1105	2857	4205	506	-12.0	330	0	0	672.0512	1	
98	0	678.3417	0	730	2058	2857	4205	509	-14.0	263	1	1	678.9940	1	
99	0	682.4539	0	730	2058	2857	4205	507	-14.0	200	1	1	683.6814	1	
100	0	687.2983	0	460	1105	2857	4205	505	-12.0	149	0	0	687.6427	1	
