Trial	CorrectionTrial?	StartTime	CenterReward?	F1	F2	F3	F4	HoldTime	Atten	Pitch	Side	Response	RespTime	Correct	
1	0	4.9372	0	730	2058	2857	4205	506	-10.0	200	1	0	5.5933	0	
2	1	11.1741	0	730	2058	2857	4205	506	-10.0	200	1	1	11.9855	1	
3	0	30.8055	0	460	1105	2857	4205	510	-10.0	330	0	0	31.2116	1	
4	0	36.4516	0	460	1105	2857	4205	505	-10.0	263	0	0	36.7969	1	
5	0	50.0181	0	460	1105	2857	4205	501	-10.0	149	0	0	50.4747	1	
6	0	55.5886	0	460	1105	2857	4205	508	-10.0	459	0	0	55.9983	1	
7	0	60.9345	0	730	2058	2857	4205	509	-10.0	459	1	1	61.6518	1	
8	0	79.8410	0	730	2058	2857	4205	511	-10.0	263	1	1	80.6481	1	
9	0	97.1502	0	460	1105	2857	4205	504	-10.0	330	0	0	97.5815	1	
10	0	102.5583	0	730	2058	2857	4205	507	-10.0	149	1	1	103.3480	1	
11	0	121.0085	0	730	2058	2857	4205	502	-10.0	200	1	1	121.5447	1	
12	0	125.8957	0	730	2058	2857	4205	505	-10.0	459	1	1	126.3663	1	
13	0	147.3511	0	460	1105	2857	4205	507	-10.0	149	0	0	147.7339	1	
14	0	151.7289	0	730	2058	2857	4205	509	-10.0	330	1	0	152.2670	0	
15	1	163.6451	0	730	2058	2857	4205	509	-10.0	330	1	1	164.2074	1	
16	0	180.2403	1	460	1105	2857	4205	508	-10.0	200	0	0	180.7073	1	
17	0	188.0636	0	460	1105	2857	4205	511	-10.0	263	0	0	188.5310	1	
18	0	206.7779	0	730	2058	2857	4205	503	-10.0	200	1	1	207.5416	1	
19	0	219.2760	0	730	2058	2857	4205	502	-10.0	330	1	0	219.7452	0	
20	1	228.6451	0	730	2058	2857	4205	502	-10.0	330	1	1	229.1643	1	
21	0	245.1598	0	460	1105	2857	4205	506	-10.0	149	0	0	245.5468	1	
22	0	254.3132	0	460	1105	2857	4205	510	-10.0	459	0	0	254.6300	1	
23	0	259.7208	0	730	2058	2857	4205	501	-10.0	263	1	1	260.2287	1	
24	0	275.5824	0	460	1105	2857	4205	508	-10.0	149	0	0	276.0746	1	
25	0	280.9991	0	730	2058	2857	4205	510	-10.0	330	1	1	281.4957	1	
26	0	302.2300	0	460	1105	2857	4205	506	-10.0	459	0	0	302.5633	1	
27	0	307.3152	0	730	2058	2857	4205	505	-10.0	200	1	1	308.2839	1	
28	0	322.9458	0	460	1105	2857	4205	509	-10.0	263	0	0	323.2834	1	
29	0	327.1361	0	730	2058	2857	4205	504	-10.0	263	1	1	328.1904	1	
30	0	341.6199	0	730	2058	2857	4205	503	-10.0	459	1	1	342.4637	1	
31	0	361.3478	0	730	2058	2857	4205	511	-10.0	200	1	1	361.8934	1	
32	0	376.3616	0	460	1105	2857	4205	507	-10.0	330	0	0	376.7902	1	
33	0	383.7442	0	460	1105	2857	4205	501	-10.0	149	0	0	384.0942	1	
34	0	389.2198	0	460	1105	2857	4205	503	-10.0	263	0	0	389.6325	1	
35	0	397.2996	0	460	1105	2857	4205	504	-10.0	330	0	0	397.7686	1	
36	0	402.4576	0	730	2058	2857	4205	506	-10.0	149	1	1	403.2575	1	
37	0	415.7107	0	730	2058	2857	4205	507	-10.0	200	1	1	416.5514	1	
38	0	432.7646	0	460	1105	2857	4205	502	-10.0	459	0	0	433.1489	1	
39	0	448.6483	0	730	2058	2857	4205	501	-10.0	459	1	1	449.1105	1	
40	0	462.9966	0	730	2058	2857	4205	511	-10.0	263	1	1	464.9333	1	
41	0	480.0723	0	460	1105	2857	4205	505	-10.0	149	0	0	480.4855	1	
42	0	489.6528	0	460	1105	2857	4205	508	-10.0	330	0	0	490.0463	1	
43	0	494.9570	0	460	1105	2857	4205	510	-10.0	200	0	0	495.3930	1	
44	0	503.4465	0	460	1105	2857	4205	508	-10.0	459	0	0	503.8412	1	
45	0	511.0097	0	460	1105	2857	4205	510	-10.0	200	0	0	511.5254	1	
46	0	516.3880	0	730	2058	2857	4205	506	-10.0	149	1	1	517.6308	1	
47	0	522.9824	0	460	1105	2857	4205	504	-10.0	330	0	0	523.5920	1	
48	0	543.0557	0	730	2058	2857	4205	509	-10.0	263	1	1	543.5845	1	
49	0	557.9022	0	730	2058	2857	4205	511	-10.0	459	1	0	558.3179	0	
50	1	568.9772	0	730	2058	2857	4205	511	-10.0	459	1	0	569.4445	0	
51	1	575.9992	0	730	2058	2857	4205	511	-10.0	459	1	0	576.4052	0	
52	1	586.0537	0	730	2058	2857	4205	511	-10.0	459	1	1	586.8242	1	
53	0	599.5198	0	730	2058	2857	4205	502	-10.0	149	1	0	599.9703	0	
54	1	611.6775	0	730	2058	2857	4205	502	-10.0	149	1	0	612.2226	0	
55	1	620.5107	0	730	2058	2857	4205	502	-10.0	149	1	1	621.2605	1	
56	0	636.7974	0	730	2058	2857	4205	505	-10.0	200	1	1	637.7216	1	
57	0	651.1671	0	730	2058	2857	4205	507	-10.0	263	1	0	651.6564	0	
58	1	659.7804	0	730	2058	2857	4205	507	-10.0	263	1	1	660.5786	1	
59	0	674.5877	0	460	1105	2857	4205	501	-10.0	330	0	0	674.9048	1	
60	0	685.9037	0	460	1105	2857	4205	511	-10.0	263	0	0	686.3097	1	
61	0	693.2011	0	730	2058	2857	4205	502	-10.0	459	1	1	694.1710	1	
62	0	707.7443	1	730	2058	2857	4205	510	-10.0	330	1	0	708.3212	0	
63	1	714.0603	0	730	2058	2857	4205	510	-10.0	330	1	0	714.4980	0	
64	1	724.0088	0	730	2058	2857	4205	510	-10.0	330	1	1	724.9656	1	
65	0	737.3266	0	460	1105	2857	4205	501	-10.0	149	0	0	737.7783	1	
66	0	742.2719	0	730	2058	2857	4205	505	-10.0	200	1	1	743.2040	1	
67	0	758.2175	0	460	1105	2857	4205	503	-10.0	459	0	0	758.7549	1	
68	0	763.8133	0	460	1105	2857	4205	507	-10.0	263	0	0	764.1610	1	
69	0	779.9985	0	730	2058	2857	4205	509	-10.0	200	1	1	780.5728	1	
70	0	793.6499	0	730	2058	2857	4205	508	-10.0	149	1	0	794.0990	0	
71	1	803.7084	1	730	2058	2857	4205	508	-10.0	149	1	1	808.8774	1	
72	0	823.5853	0	730	2058	2857	4205	506	-10.0	330	1	0	824.1005	0	
73	1	833.7040	1	730	2058	2857	4205	506	-10.0	330	1	0	840.2629	0	
74	1	852.3715	0	730	2058	2857	4205	506	-10.0	330	1	1	853.2061	1	
75	0	862.3177	0	460	1105	2857	4205	502	-10.0	263	0	0	862.9586	1	
76	0	867.6048	0	460	1105	2857	4205	511	-10.0	459	0	0	868.1010	1	
77	0	875.7824	0	460	1105	2857	4205	509	-10.0	330	0	0	876.2564	1	
78	0	883.2478	0	460	1105	2857	4205	508	-10.0	149	0	0	883.6692	1	
79	0	888.7481	0	730	2058	2857	4205	505	-10.0	200	1	1	890.4145	1	
80	0	902.3046	0	730	2058	2857	4205	504	-10.0	263	1	0	902.9032	0	
81	1	911.8149	0	730	2058	2857	4205	504	-10.0	263	1	0	912.3127	0	
82	1	921.5077	0	730	2058	2857	4205	504	-10.0	263	1	1	922.4502	1	
83	0	939.2993	0	460	1105	2857	4205	506	-10.0	459	0	0	939.6478	1	
84	0	948.2990	0	730	2058	2857	4205	501	-10.0	330	1	1	949.1132	1	
85	0	966.3948	1	730	2058	2857	4205	503	-10.0	200	1	0	967.3868	0	
86	1	976.5453	0	730	2058	2857	4205	503	-10.0	200	1	0	977.3573	0	
87	1	988.4301	0	730	2058	2857	4205	503	-10.0	200	1	1	989.0968	1	
88	0	1000.4528	0	730	2058	2857	4205	510	-10.0	149	1	1	1001.5338	1	
89	0	1019.2608	1	460	1105	2857	4205	502	-10.0	200	0	0	1019.5787	1	
90	0	1036.4981	0	460	1105	2857	4205	507	-10.0	149	0	0	1036.9573	1	
91	0	1046.6864	0	730	2058	2857	4205	506	-10.0	263	1	1	1047.2140	1	
92	0	1072.3847	0	730	2058	2857	4205	501	-10.0	330	1	1	1073.0571	1	
93	0	1088.4662	0	730	2058	2857	4205	511	-10.0	459	1	1	1089.1106	1	
94	0	1106.0972	1	460	1105	2857	4205	508	-10.0	200	0	0	1106.7747	1	
95	0	1116.6224	0	460	1105	2857	4205	503	-10.0	330	0	0	1117.0834	1	
96	0	1122.2122	1	730	2058	2857	4205	505	-10.0	459	1	0	1127.8023	0	
97	1	1138.6597	0	730	2058	2857	4205	505	-10.0	459	1	1	1139.2240	1	
98	0	1159.9042	0	460	1105	2857	4205	509	-10.0	149	0	0	1160.3313	1	
99	0	1167.7563	0	460	1105	2857	4205	510	-10.0	263	0	0	1168.1264	1	
100	0	1180.7183	0	460	1105	2857	4205	510	-10.0	330	0	0	1181.1258	1	
101	0	1186.5067	0	460	1105	2857	4205	507	-10.0	263	0	0	1187.0122	1	
102	0	1192.2258	0	730	2058	2857	4205	504	-10.0	149	1	1	1193.4327	1	
103	0	1205.7292	0	460	1105	2857	4205	502	-10.0	200	0	0	1206.1240	1	
104	0	1210.9050	1	460	1105	2857	4205	509	-10.0	459	0	0	1211.2847	1	
105	0	1215.7997	0	730	2058	2857	4205	501	-10.0	263	1	0	1219.2532	0	
106	1	1229.3618	0	730	2058	2857	4205	501	-10.0	263	1	1	1230.5990	1	
107	0	1248.9471	1	460	1105	2857	4205	508	-10.0	330	0	0	1249.3867	1	
108	0	1258.3062	0	730	2058	2857	4205	503	-10.0	200	1	0	1258.8116	0	
109	1	1265.0549	0	730	2058	2857	4205	503	-10.0	200	1	1	1266.4147	1	
110	0	1282.7856	0	730	2058	2857	4205	511	-10.0	459	1	1	1283.9624	1	
111	0	1295.6820	0	730	2058	2857	4205	505	-10.0	149	1	0	1296.1892	0	
112	1	1307.9790	0	730	2058	2857	4205	505	-10.0	149	1	1	1308.6500	1	
113	0	1323.5257	0	730	2058	2857	4205	511	-10.0	200	1	1	1324.2946	1	
114	0	1340.2845	0	460	1105	2857	4205	505	-10.0	149	0	0	1340.6835	1	
115	0	1349.8906	0	460	1105	2857	4205	507	-10.0	459	0	0	1350.3175	1	
116	0	1355.1288	0	730	2058	2857	4205	506	-10.0	263	1	1	1356.6564	1	
117	0	1370.5816	0	460	1105	2857	4205	509	-10.0	330	0	0	1371.1683	1	
118	0	1378.2619	0	460	1105	2857	4205	504	-10.0	330	0	0	1378.6048	1	
119	0	1383.4592	0	730	2058	2857	4205	510	-10.0	149	1	1	1384.8984	1	
120	0	1406.0465	0	730	2058	2857	4205	501	-10.0	200	1	1	1406.9786	1	
121	0	1425.7173	0	460	1105	2857	4205	503	-10.0	263	0	0	1426.1666	1	
122	0	1438.0007	0	460	1105	2857	4205	502	-10.0	459	0	0	1438.3699	1	
