Trial	CorrectionTrial?	StartTime	CenterReward?	F1	F2	F3	F4	HoldTime	Atten	Pitch	Side	Response	RespTime	Correct	
1	0	3.5315	0	460	1105	2857	4205	506	-12.0	330	0	1	10.2330	0	
2	1	19.3338	0	460	1105	2857	4205	506	-12.0	330	0	0	20.5465	1	
3	0	23.6431	0	730	2058	2857	4205	511	-14.0	149	1	1	24.1785	1	
4	0	26.1237	0	730	2058	2857	4205	501	-14.0	263	1	1	26.5917	1	
5	0	31.2547	1	460	1105	2857	4205	508	-12.0	200	0	0	32.0803	1	
6	0	35.8073	0	460	1105	2857	4205	502	-12.0	200	0	0	41.4172	1	
7	0	49.3739	0	730	2058	2857	4205	509	-14.0	459	1	1	49.9440	1	
8	0	54.1592	0	730	2058	2857	4205	507	-14.0	149	1	1	54.8073	1	
9	0	60.6299	0	460	1105	2857	4205	505	-12.0	263	0	1	61.8741	0	
10	1	67.4876	0	460	1105	2857	4205	505	-12.0	263	0	0	68.9262	1	
11	0	76.3776	0	730	2058	2857	4205	510	-14.0	330	1	1	76.9632	1	
12	0	81.7578	0	460	1105	2857	4205	511	-12.0	459	0	0	82.9363	1	
13	0	89.3373	0	460	1105	2857	4205	507	-12.0	149	0	0	91.4352	1	
14	0	97.2024	0	730	2058	2857	4205	501	-14.0	330	1	1	97.6138	1	
15	0	102.0721	0	579	1508	2857	4205	501	-12.0	200	-1	1	102.5302	-1	
16	0	108.2101	0	730	2058	2857	4205	504	-14.0	263	1	1	108.8885	1	
17	0	113.3676	0	460	1105	2857	4205	503	-12.0	330	0	0	115.6189	1	
18	0	121.4899	0	460	1105	2857	4205	509	-12.0	149	0	0	122.3401	1	
19	0	128.3413	1	460	1105	2857	4205	508	-12.0	263	0	0	128.8517	1	
20	0	137.3357	0	460	1105	2857	4205	505	-12.0	200	0	0	141.1795	1	
21	0	148.2300	0	730	2058	2857	4205	506	-14.0	459	1	1	148.7413	1	
22	0	152.9203	1	460	1105	2857	4205	504	-12.0	330	0	1	153.7713	0	
23	1	160.6659	0	460	1105	2857	4205	504	-12.0	330	0	1	161.4097	0	
24	1	169.2264	0	460	1105	2857	4205	504	-12.0	330	0	0	169.8979	1	
25	0	175.6044	0	730	2058	2857	4205	502	-14.0	149	1	1	176.1188	1	
26	0	180.4070	0	730	2058	2857	4205	503	-14.0	200	1	1	181.0312	1	
27	0	184.7306	0	730	2058	2857	4205	511	-14.0	459	1	1	185.4382	1	
28	0	190.2472	0	460	1105	2857	4205	501	-12.0	263	0	0	191.1271	1	
29	0	196.4416	0	730	2058	2857	4205	510	-14.0	330	1	1	196.8853	1	
30	0	200.7210	0	579	1508	2857	4205	501	-12.0	200	-1	1	201.5421	-1	
31	0	205.5212	0	730	2058	2857	4205	509	-14.0	263	1	1	206.2802	1	
32	0	210.7440	0	460	1105	2857	4205	507	-12.0	200	0	0	211.9616	1	
33	0	218.4047	0	460	1105	2857	4205	508	-12.0	459	0	0	219.1811	1	
34	0	224.8474	0	460	1105	2857	4205	508	-12.0	149	0	0	226.2330	1	
35	0	232.0144	0	460	1105	2857	4205	511	-12.0	263	0	0	232.6078	1	
36	0	239.2188	0	730	2058	2857	4205	509	-14.0	459	1	0	240.2445	0	
37	1	245.9861	0	730	2058	2857	4205	509	-14.0	459	1	1	246.8661	1	
38	0	250.9219	0	460	1105	2857	4205	503	-12.0	330	0	0	251.5669	1	
39	0	256.4594	0	730	2058	2857	4205	506	-14.0	200	1	1	256.8590	1	
40	0	260.9167	0	460	1105	2857	4205	507	-12.0	149	0	0	261.7739	1	
41	0	266.9461	0	730	2058	2857	4205	505	-14.0	200	1	1	267.3432	1	
42	0	271.8917	0	460	1105	2857	4205	502	-12.0	263	0	1	272.5882	0	
43	1	281.9576	0	460	1105	2857	4205	502	-12.0	263	0	0	282.5601	1	
44	0	287.8765	1	730	2058	2857	4205	501	-14.0	330	1	1	288.2881	1	
45	0	291.6064	0	730	2058	2857	4205	510	-14.0	459	1	1	294.9062	1	
46	0	299.5416	0	730	2058	2857	4205	511	-14.0	263	1	1	300.1573	1	
47	0	304.8858	0	730	2058	2857	4205	506	-14.0	459	1	1	306.1697	1	
48	0	311.3826	0	460	1105	2857	4205	502	-12.0	330	0	0	312.7641	1	
49	0	319.0356	0	460	1105	2857	4205	510	-12.0	149	0	0	320.5228	1	
50	0	326.4261	0	460	1105	2857	4205	505	-12.0	200	0	0	327.5170	1	
51	0	332.7448	0	730	2058	2857	4205	504	-14.0	459	1	1	333.2114	1	
52	0	337.2481	1	460	1105	2857	4205	501	-12.0	149	0	1	346.4675	0	
53	1	352.4531	0	460	1105	2857	4205	501	-12.0	149	0	0	353.5706	1	
54	0	359.0860	0	730	2058	2857	4205	503	-14.0	200	1	1	359.5929	1	
55	0	363.8703	0	730	2058	2857	4205	508	-14.0	330	1	1	364.2391	1	
56	0	368.2479	0	730	2058	2857	4205	509	-14.0	263	1	1	368.8996	1	
57	0	373.7573	0	460	1105	2857	4205	505	-12.0	459	0	0	374.3779	1	
58	0	378.9647	1	730	2058	2857	4205	501	-14.0	263	1	1	379.3290	1	
59	0	384.3738	0	460	1105	2857	4205	509	-12.0	330	0	1	388.0219	0	
60	1	395.9404	0	460	1105	2857	4205	509	-12.0	330	0	0	397.1058	1	
61	0	402.0735	1	579	1508	2857	4205	501	-12.0	200	-1	1	402.5272	-1	
62	0	406.3709	0	460	1105	2857	4205	504	-12.0	200	0	0	411.6981	1	
63	0	417.0938	0	730	2058	2857	4205	510	-14.0	200	1	1	417.7301	1	
64	0	421.7814	0	730	2058	2857	4205	502	-14.0	330	1	1	422.5861	1	
65	0	426.9409	0	579	1508	2857	4205	501	-12.0	200	-1	1	427.5399	-1	
66	0	430.9511	0	730	2058	2857	4205	511	-14.0	459	1	1	431.4449	1	
67	0	436.1029	1	460	1105	2857	4205	503	-12.0	263	0	0	437.5201	1	
68	0	441.3121	0	460	1105	2857	4205	509	-12.0	263	0	0	445.5905	1	
69	0	450.4907	0	460	1105	2857	4205	507	-12.0	330	0	0	453.6902	1	
70	0	458.7265	1	730	2058	2857	4205	510	-14.0	200	1	1	459.1311	1	
71	0	462.5468	0	460	1105	2857	4205	506	-12.0	459	0	1	466.0457	0	
72	1	472.1380	0	460	1105	2857	4205	506	-12.0	459	0	0	473.6934	1	
73	0	478.7544	0	460	1105	2857	4205	505	-12.0	149	0	0	479.3858	1	
74	0	485.1242	0	730	2058	2857	4205	501	-14.0	263	1	1	485.4623	1	
75	0	490.0395	0	730	2058	2857	4205	508	-14.0	200	1	1	490.5413	1	
76	0	494.0123	0	730	2058	2857	4205	511	-14.0	459	1	1	494.5327	1	
77	0	500.4453	0	460	1105	2857	4205	502	-12.0	330	0	0	502.0096	1	
78	0	507.3234	0	730	2058	2857	4205	503	-14.0	149	1	1	507.7907	1	
79	0	511.8919	0	460	1105	2857	4205	503	-12.0	330	0	0	512.6912	1	
80	0	517.7063	0	579	1508	2857	4205	501	-12.0	200	-1	0	518.3284	-1	
81	0	524.8965	0	730	2058	2857	4205	510	-14.0	149	1	0	525.7404	0	
82	1	531.6032	0	730	2058	2857	4205	510	-14.0	149	1	1	532.2364	1	
83	0	536.5303	0	730	2058	2857	4205	502	-14.0	200	1	1	537.0475	1	
84	0	542.2906	0	460	1105	2857	4205	504	-12.0	459	0	0	543.5322	1	
85	0	549.3838	0	460	1105	2857	4205	511	-12.0	330	0	0	550.5221	1	
86	0	555.1118	0	730	2058	2857	4205	505	-14.0	200	1	1	555.6687	1	
87	0	559.3781	0	460	1105	2857	4205	509	-12.0	149	0	0	560.5364	1	
88	0	565.4059	0	460	1105	2857	4205	506	-12.0	263	0	0	566.6086	1	
89	0	571.1822	0	460	1105	2857	4205	508	-12.0	459	0	0	573.3580	1	
90	0	579.5988	0	730	2058	2857	4205	507	-14.0	330	1	1	580.0605	1	
91	0	583.9586	0	730	2058	2857	4205	511	-14.0	263	1	1	584.5562	1	
92	0	588.8480	1	730	2058	2857	4205	510	-14.0	149	1	1	592.2136	1	
93	0	596.6819	1	460	1105	2857	4205	502	-12.0	459	0	1	602.0726	0	
94	1	611.6112	0	460	1105	2857	4205	502	-12.0	459	0	0	612.7836	1	
95	0	617.2341	0	460	1105	2857	4205	501	-12.0	200	0	1	617.9185	0	
96	1	626.9155	0	460	1105	2857	4205	501	-12.0	200	0	0	627.9653	1	
97	0	631.7072	0	730	2058	2857	4205	504	-14.0	200	1	1	632.3733	1	
98	0	636.5145	0	460	1105	2857	4205	503	-12.0	263	0	1	637.7808	0	
99	1	648.0990	0	460	1105	2857	4205	503	-12.0	263	0	0	649.7755	1	
100	0	654.7997	0	730	2058	2857	4205	508	-14.0	330	1	1	655.2619	1	
101	0	658.8668	0	460	1105	2857	4205	509	-12.0	149	0	1	659.7890	0	
102	1	666.1683	0	460	1105	2857	4205	509	-12.0	149	0	0	667.5920	1	
103	0	672.1511	0	730	2058	2857	4205	505	-14.0	459	1	1	672.6774	1	
104	0	676.8388	0	730	2058	2857	4205	509	-14.0	149	1	1	677.3451	1	
105	0	681.2090	0	460	1105	2857	4205	510	-12.0	200	0	0	682.1538	1	
106	0	687.1834	0	730	2058	2857	4205	506	-14.0	263	1	1	687.5562	1	
107	0	691.8394	0	579	1508	2857	4205	501	-12.0	200	-1	1	692.4195	-1	
108	0	697.0756	0	460	1105	2857	4205	511	-12.0	459	0	1	697.9982	0	
109	1	704.6015	0	460	1105	2857	4205	511	-12.0	459	0	0	705.8474	1	
110	0	711.0214	1	460	1105	2857	4205	502	-12.0	263	0	0	712.1065	1	
111	0	716.1378	1	460	1105	2857	4205	501	-12.0	200	0	1	722.3850	0	
112	1	729.0184	0	460	1105	2857	4205	501	-12.0	200	0	1	729.8128	0	
113	1	737.5686	0	460	1105	2857	4205	501	-12.0	200	0	0	738.3583	1	
114	0	743.6556	0	460	1105	2857	4205	507	-12.0	459	0	0	744.5750	1	
115	0	750.2426	0	730	2058	2857	4205	505	-14.0	330	1	1	750.6714	1	
116	0	754.6755	0	730	2058	2857	4205	508	-14.0	149	1	1	755.0307	1	
117	0	758.8281	0	730	2058	2857	4205	502	-14.0	330	1	1	759.4009	1	
118	0	764.2009	0	730	2058	2857	4205	503	-14.0	263	1	1	764.8180	1	
119	0	770.3001	0	730	2058	2857	4205	510	-14.0	459	1	1	771.3970	1	
120	0	775.7442	0	460	1105	2857	4205	501	-12.0	200	0	0	779.2667	1	
121	0	785.1776	0	460	1105	2857	4205	506	-12.0	149	0	0	785.6594	1	
122	0	792.1027	0	460	1105	2857	4205	504	-12.0	200	0	1	792.9524	0	
123	1	801.5681	0	460	1105	2857	4205	504	-12.0	200	0	0	803.1021	1	
124	0	808.0170	0	730	2058	2857	4205	507	-14.0	263	1	1	808.5121	1	
125	0	812.5506	0	460	1105	2857	4205	509	-12.0	149	0	0	813.9860	1	
126	0	819.0692	0	730	2058	2857	4205	505	-14.0	459	1	1	820.8534	1	
127	0	824.3576	0	730	2058	2857	4205	508	-14.0	330	1	1	824.9373	1	
128	0	829.3544	0	460	1105	2857	4205	503	-12.0	459	0	0	829.8638	1	
129	0	834.6321	0	460	1105	2857	4205	511	-12.0	149	0	0	835.5684	1	
130	0	840.4807	0	730	2058	2857	4205	508	-14.0	200	1	1	841.0238	1	
131	0	844.9434	0	579	1508	2857	4205	501	-12.0	200	-1	1	845.5268	-1	
132	0	850.1626	0	460	1105	2857	4205	506	-12.0	330	0	0	853.0283	1	
133	0	858.2458	1	730	2058	2857	4205	507	-14.0	263	1	1	858.7462	1	
134	0	862.9098	0	730	2058	2857	4205	505	-14.0	459	1	1	866.1558	1	
135	0	870.8030	0	460	1105	2857	4205	502	-12.0	200	0	0	873.1575	1	
136	0	877.9670	0	460	1105	2857	4205	509	-12.0	149	0	0	878.7165	1	
137	0	883.8514	0	730	2058	2857	4205	501	-14.0	330	1	1	884.4954	1	
138	0	888.6014	0	730	2058	2857	4205	506	-14.0	200	1	1	889.2491	1	
139	0	893.0933	0	730	2058	2857	4205	503	-14.0	459	1	1	894.1126	1	
140	0	899.1292	0	579	1508	2857	4205	501	-12.0	200	-1	0	900.3902	-1	
141	0	905.5175	1	730	2058	2857	4205	509	-14.0	149	1	1	906.1275	1	
142	0	909.9239	0	730	2058	2857	4205	507	-14.0	330	1	1	913.7813	1	
143	0	917.6339	0	460	1105	2857	4205	502	-12.0	149	0	0	919.3282	1	
144	0	924.4301	0	460	1105	2857	4205	501	-12.0	330	0	0	925.8303	1	
145	0	930.4141	0	460	1105	2857	4205	508	-12.0	459	0	0	930.8516	1	
146	0	937.1773	0	460	1105	2857	4205	505	-12.0	263	0	1	937.6856	0	
147	1	943.8088	0	460	1105	2857	4205	505	-12.0	263	0	0	945.7177	1	
148	0	951.2779	0	460	1105	2857	4205	504	-12.0	200	0	0	952.0908	1	
149	0	956.1929	0	730	2058	2857	4205	503	-14.0	200	1	1	956.7400	1	
150	0	960.3663	0	460	1105	2857	4205	504	-12.0	263	0	1	961.4628	0	
151	1	968.1330	0	460	1105	2857	4205	504	-12.0	263	0	0	969.5257	1	
152	0	974.7517	1	730	2058	2857	4205	509	-14.0	459	1	1	975.4803	1	
153	0	977.8634	0	460	1105	2857	4205	511	-12.0	149	0	1	981.4539	0	
154	1	989.3059	0	460	1105	2857	4205	511	-12.0	149	0	0	990.4982	1	
155	0	996.3599	0	730	2058	2857	4205	508	-14.0	330	1	1	996.9195	1	
156	0	1000.9996	0	579	1508	2857	4205	501	-12.0	200	-1	1	1001.5178	-1	
157	0	1005.6183	0	460	1105	2857	4205	502	-12.0	149	0	0	1007.1650	1	
158	0	1011.8521	0	460	1105	2857	4205	505	-12.0	263	0	0	1012.3229	1	
159	0	1017.5812	0	730	2058	2857	4205	510	-14.0	459	1	1	1018.0064	1	
160	0	1021.9961	0	460	1105	2857	4205	501	-12.0	200	0	0	1025.0931	1	
161	0	1030.8122	0	730	2058	2857	4205	502	-14.0	200	1	1	1031.3680	1	
162	0	1035.8786	0	730	2058	2857	4205	511	-14.0	330	1	1	1036.4130	1	
163	0	1040.6115	0	460	1105	2857	4205	505	-12.0	459	0	0	1043.3198	1	
164	0	1047.8945	0	730	2058	2857	4205	506	-14.0	263	1	1	1048.4508	1	
165	0	1051.8653	0	730	2058	2857	4205	510	-14.0	149	1	1	1052.4336	1	
166	0	1056.3903	0	460	1105	2857	4205	501	-12.0	200	0	0	1058.1828	1	
167	0	1064.3626	0	730	2058	2857	4205	507	-14.0	149	1	1	1065.0536	1	
168	0	1069.3609	0	579	1508	2857	4205	501	-12.0	200	-1	1	1070.1233	-1	
169	0	1074.1916	0	460	1105	2857	4205	509	-12.0	459	0	0	1075.7863	1	
170	0	1080.8269	0	460	1105	2857	4205	503	-12.0	330	0	0	1081.6523	1	
171	0	1087.2963	0	730	2058	2857	4205	506	-14.0	263	1	1	1087.7430	1	
172	0	1092.2199	0	730	2058	2857	4205	502	-14.0	149	1	1	1093.0021	1	
173	0	1097.9412	1	730	2058	2857	4205	507	-14.0	330	1	0	1103.6094	0	
174	1	1112.0423	0	730	2058	2857	4205	507	-14.0	330	1	1	1112.7556	1	
175	0	1117.7304	0	730	2058	2857	4205	501	-14.0	459	1	0	1119.4643	0	
176	1	1128.9196	0	730	2058	2857	4205	501	-14.0	459	1	1	1129.8188	1	
177	0	1134.5246	1	460	1105	2857	4205	508	-12.0	200	0	0	1135.5215	1	
178	0	1140.9571	0	730	2058	2857	4205	505	-14.0	330	1	0	1145.2021	0	
179	1	1151.7981	1	730	2058	2857	4205	505	-14.0	330	1	1	1152.3456	1	
180	0	1154.8421	0	730	2058	2857	4205	504	-14.0	149	1	1	1157.9101	1	
181	0	1163.7860	1	460	1105	2857	4205	509	-12.0	263	0	1	1168.4397	0	
182	1	1174.5330	1	460	1105	2857	4205	509	-12.0	263	0	0	1180.0288	1	
183	0	1185.3417	0	460	1105	2857	4205	510	-12.0	459	0	0	1186.3868	1	
184	0	1191.7650	0	460	1105	2857	4205	511	-12.0	200	0	0	1192.4997	1	
185	0	1199.2345	0	460	1105	2857	4205	506	-12.0	200	0	0	1199.8862	1	
186	0	1206.6882	0	460	1105	2857	4205	509	-12.0	149	0	0	1207.3728	1	
187	0	1213.0911	0	460	1105	2857	4205	508	-12.0	330	0	1	1213.6205	0	
188	1	1223.1327	0	460	1105	2857	4205	508	-12.0	330	0	0	1223.8173	1	
189	0	1228.5530	0	730	2058	2857	4205	501	-14.0	263	1	1	1229.3360	1	
190	0	1233.1391	0	730	2058	2857	4205	505	-14.0	459	1	1	1233.6715	1	
191	0	1238.0879	0	730	2058	2857	4205	507	-14.0	200	1	1	1238.8008	1	
192	0	1243.6179	0	460	1105	2857	4205	504	-12.0	263	0	0	1244.8702	1	
193	0	1249.4474	0	460	1105	2857	4205	510	-12.0	330	0	0	1250.0471	1	
194	0	1257.2645	0	730	2058	2857	4205	502	-14.0	459	1	1	1257.7772	1	
195	0	1262.0678	0	460	1105	2857	4205	511	-12.0	149	0	0	1262.6790	1	
196	0	1267.6004	0	730	2058	2857	4205	504	-14.0	263	1	1	1268.1301	1	
197	0	1272.3013	0	730	2058	2857	4205	506	-14.0	330	1	1	1273.5515	1	
198	0	1278.6698	0	460	1105	2857	4205	509	-12.0	149	0	0	1279.9649	1	
199	0	1285.3933	0	579	1508	2857	4205	501	-12.0	200	-1	0	1286.6646	-1	
200	0	1290.6671	0	460	1105	2857	4205	503	-12.0	200	0	0	1291.1695	1	
201	0	1298.1518	0	730	2058	2857	4205	502	-14.0	200	1	1	1298.6364	1	
202	0	1303.0717	0	460	1105	2857	4205	505	-12.0	330	0	0	1303.8769	1	
203	0	1308.6659	0	460	1105	2857	4205	510	-12.0	263	0	0	1309.8150	1	
204	0	1315.4053	0	460	1105	2857	4205	511	-12.0	149	0	0	1316.0568	1	
205	0	1321.1147	0	730	2058	2857	4205	507	-14.0	459	1	1	1321.4313	1	
206	0	1325.5867	0	460	1105	2857	4205	504	-12.0	200	0	1	1326.5532	0	
207	1	1334.5122	0	460	1105	2857	4205	504	-12.0	200	0	0	1336.9597	1	
208	0	1342.1475	0	730	2058	2857	4205	510	-14.0	330	1	0	1343.5003	0	
209	1	1352.4902	0	730	2058	2857	4205	510	-14.0	330	1	1	1353.2131	1	
210	0	1358.0105	0	460	1105	2857	4205	502	-12.0	263	0	0	1359.7027	1	
211	0	1364.3180	0	579	1508	2857	4205	501	-12.0	200	-1	0	1366.3656	-1	
212	0	1370.2743	0	730	2058	2857	4205	501	-14.0	149	1	1	1370.8390	1	
213	0	1375.8692	0	730	2058	2857	4205	506	-14.0	330	1	1	1376.3202	1	
214	0	1380.6671	0	730	2058	2857	4205	508	-14.0	200	1	1	1381.2536	1	
215	0	1385.6458	0	730	2058	2857	4205	507	-14.0	459	1	0	1386.8702	0	
216	1	1396.8145	0	730	2058	2857	4205	507	-14.0	459	1	1	1397.1276	1	
217	0	1402.3942	0	730	2058	2857	4205	503	-14.0	149	1	1	1403.3468	1	
218	0	1408.6423	0	460	1105	2857	4205	505	-12.0	263	0	0	1409.9530	1	
219	0	1415.5663	0	460	1105	2857	4205	508	-12.0	330	0	0	1416.6142	1	
220	0	1421.8971	0	730	2058	2857	4205	505	-14.0	459	1	1	1422.3514	1	
221	0	1426.3442	0	730	2058	2857	4205	502	-14.0	263	1	1	1426.9160	1	
222	0	1431.0770	0	460	1105	2857	4205	510	-12.0	200	0	0	1432.2750	1	
223	0	1438.6505	0	579	1508	2857	4205	501	-12.0	200	-1	0	1440.3514	-1	
224	0	1445.8844	0	730	2058	2857	4205	503	-14.0	149	1	1	1446.3048	1	
225	0	1452.5592	0	730	2058	2857	4205	506	-14.0	459	1	1	1453.5144	1	
226	0	1458.1019	0	460	1105	2857	4205	507	-12.0	200	0	0	1459.5849	1	
227	0	1465.2904	0	730	2058	2857	4205	511	-14.0	330	1	1	1466.0326	1	
228	0	1470.6328	0	460	1105	2857	4205	504	-12.0	263	0	0	1472.1883	1	
229	0	1477.4524	0	730	2058	2857	4205	501	-14.0	200	1	1	1477.9023	1	
230	0	1481.4932	0	730	2058	2857	4205	505	-14.0	149	1	1	1482.0060	1	
231	0	1488.6489	0	460	1105	2857	4205	507	-12.0	330	0	1	1489.7463	0	
232	1	1497.5643	0	460	1105	2857	4205	507	-12.0	330	0	0	1499.0041	1	
233	0	1504.4944	0	460	1105	2857	4205	503	-12.0	263	0	0	1504.8416	1	
234	0	1518.6815	0	460	1105	2857	4205	511	-12.0	459	0	0	1520.1627	1	
235	0	1524.8564	0	460	1105	2857	4205	504	-12.0	200	0	0	1525.9134	1	
236	0	1531.6694	0	460	1105	2857	4205	509	-12.0	330	0	0	1532.2158	1	
237	0	1538.2767	0	460	1105	2857	4205	508	-12.0	263	0	1	1538.8244	0	
238	1	1547.4523	0	460	1105	2857	4205	508	-12.0	263	0	0	1548.3213	1	
239	0	1554.2862	0	730	2058	2857	4205	510	-14.0	149	1	1	1555.1557	1	
240	0	1559.0454	0	579	1508	2857	4205	501	-12.0	200	-1	1	1559.5407	-1	
241	0	1563.8734	0	460	1105	2857	4205	508	-12.0	330	0	0	1565.6606	1	
242	0	1573.1271	0	460	1105	2857	4205	507	-12.0	459	0	0	1573.8038	1	
243	0	1579.0164	0	460	1105	2857	4205	510	-12.0	200	0	0	1580.0587	1	
244	0	1586.4439	0	730	2058	2857	4205	509	-14.0	263	1	1	1587.2303	1	
245	0	1593.4122	0	730	2058	2857	4205	504	-14.0	149	1	1	1594.3188	1	
246	0	1598.0749	0	460	1105	2857	4205	502	-12.0	200	0	0	1599.7233	1	
247	0	1603.9602	0	730	2058	2857	4205	505	-14.0	263	1	1	1604.6077	1	
248	0	1608.3296	0	460	1105	2857	4205	511	-12.0	459	0	1	1608.7361	0	
249	1	1644.0184	0	460	1105	2857	4205	511	-12.0	459	0	0	1648.5040	1	
250	0	1654.2723	0	730	2058	2857	4205	503	-14.0	330	1	1	1654.8482	1	
