Trial	CorrectionTrial?	StartTime	CenterReward?	F1	F2	F3	F4	HoldTime	Atten	Pitch	Side	Response	RespTime	Correct	
1	0	13.0250	0	460	1105	2857	4205	507	-12.0	459	0	1	13.7796	0	
2	1	21.5221	0	460	1105	2857	4205	507	-12.0	459	0	0	22.3353	1	
3	0	28.1013	0	460	1105	2857	4205	506	-12.0	263	0	0	28.6534	1	
4	0	34.4910	0	730	2058	2857	4205	503	-14.0	330	1	1	34.9451	1	
5	0	39.5589	0	730	2058	2857	4205	504	-14.0	149	1	1	40.2021	1	
6	0	45.0824	0	460	1105	2857	4205	505	-12.0	200	0	0	45.8766	1	
7	0	51.4755	0	730	2058	2857	4205	509	-14.0	263	1	1	51.8744	1	
8	0	56.8082	0	460	1105	2857	4205	510	-12.0	149	0	0	57.8348	1	
9	0	73.3918	0	730	2058	2857	4205	501	-14.0	330	1	0	73.9276	0	
10	1	81.4635	0	730	2058	2857	4205	501	-14.0	330	1	1	82.0686	1	
11	0	88.2514	1	460	1105	2857	4205	508	-12.0	459	0	0	89.2196	1	
12	0	95.6144	0	730	2058	2857	4205	502	-14.0	200	1	1	98.9556	1	
13	0	103.4926	0	579	1508	2857	4205	501	-12.0	200	-1	1	103.9929	-1	
14	0	109.4961	0	460	1105	2857	4205	503	-12.0	459	0	1	110.3020	0	
15	1	116.0384	0	460	1105	2857	4205	503	-12.0	459	0	0	117.0689	1	
16	0	121.9926	0	460	1105	2857	4205	505	-12.0	200	0	0	122.4032	1	
17	0	127.2192	0	460	1105	2857	4205	509	-12.0	330	0	1	127.5677	0	
18	1	137.3197	0	460	1105	2857	4205	509	-12.0	330	0	0	137.8687	1	
19	0	145.8848	0	730	2058	2857	4205	508	-14.0	149	1	1	146.5004	1	
20	0	151.0474	1	730	2058	2857	4205	507	-14.0	200	1	1	151.5473	1	
21	0	156.5280	0	579	1508	2857	4205	501	-12.0	200	-1	1	159.5067	-1	
22	0	164.5825	0	730	2058	2857	4205	502	-14.0	459	1	1	165.2686	1	
23	0	170.1934	0	460	1105	2857	4205	504	-12.0	263	0	0	171.0346	1	
24	0	177.4243	0	730	2058	2857	4205	511	-14.0	149	1	1	177.9446	1	
25	0	183.2039	0	730	2058	2857	4205	506	-14.0	263	1	1	183.6999	1	
26	0	188.9889	0	460	1105	2857	4205	508	-12.0	459	0	0	189.6116	1	
27	0	195.8910	0	730	2058	2857	4205	503	-14.0	330	1	0	196.9161	0	
28	1	204.1635	0	730	2058	2857	4205	503	-14.0	330	1	1	204.6678	1	
29	0	209.1365	0	460	1105	2857	4205	511	-12.0	200	0	0	209.6838	1	
30	0	214.8002	0	460	1105	2857	4205	502	-12.0	149	0	0	215.9435	1	
31	0	224.4980	0	730	2058	2857	4205	505	-14.0	200	1	1	224.9820	1	
32	0	229.4239	0	579	1508	2857	4205	501	-12.0	200	-1	1	230.1815	-1	
33	0	235.6426	0	460	1105	2857	4205	510	-12.0	149	0	1	237.6210	0	
34	1	243.4623	0	460	1105	2857	4205	510	-12.0	149	0	0	245.0862	1	
35	0	251.6364	0	730	2058	2857	4205	509	-14.0	459	1	1	252.1882	1	
36	0	257.4922	0	730	2058	2857	4205	507	-14.0	330	1	1	258.0578	1	
37	0	263.4379	0	460	1105	2857	4205	505	-12.0	459	0	0	264.6441	1	
38	0	270.5423	0	730	2058	2857	4205	501	-14.0	149	1	1	271.3780	1	
39	0	276.6297	1	730	2058	2857	4205	509	-14.0	263	1	1	277.2397	1	
40	0	280.7754	0	460	1105	2857	4205	504	-12.0	330	0	1	284.6783	0	
41	1	292.0324	0	460	1105	2857	4205	504	-12.0	330	0	0	292.7633	1	
42	0	298.6566	0	460	1105	2857	4205	510	-12.0	200	0	0	299.1396	1	
43	0	305.1101	0	460	1105	2857	4205	506	-12.0	263	0	0	306.0853	1	
44	0	312.6451	0	730	2058	2857	4205	503	-14.0	330	1	1	313.1746	1	
45	0	317.6016	0	730	2058	2857	4205	508	-14.0	200	1	1	318.0649	1	
46	0	322.7260	0	460	1105	2857	4205	511	-12.0	459	0	0	323.2640	1	
47	0	331.7206	0	730	2058	2857	4205	502	-14.0	149	1	1	332.2112	1	
48	0	336.9552	0	460	1105	2857	4205	507	-12.0	200	0	0	337.3906	1	
49	0	345.5270	0	460	1105	2857	4205	510	-12.0	263	0	0	346.6481	1	
50	0	352.6857	0	730	2058	2857	4205	503	-14.0	330	1	1	353.3589	1	
51	0	357.9590	1	730	2058	2857	4205	505	-14.0	149	1	1	361.8978	1	
52	0	365.7893	0	730	2058	2857	4205	501	-14.0	459	1	1	366.5469	1	
53	0	371.5023	0	730	2058	2857	4205	504	-14.0	149	1	1	372.2538	1	
54	0	377.7491	0	460	1105	2857	4205	508	-12.0	459	0	0	379.0053	1	
55	0	386.0194	0	460	1105	2857	4205	502	-12.0	263	0	0	386.7166	1	
56	0	392.5124	1	460	1105	2857	4205	511	-12.0	330	0	1	397.0791	0	
57	1	403.4490	0	460	1105	2857	4205	511	-12.0	330	0	0	404.7742	1	
58	0	410.2045	0	460	1105	2857	4205	506	-12.0	200	0	0	411.7736	1	
59	0	418.8624	0	460	1105	2857	4205	509	-12.0	459	0	0	419.3959	1	
60	0	425.7248	0	579	1508	2857	4205	501	-12.0	200	-1	1	426.4461	-1	
61	0	431.1992	0	730	2058	2857	4205	505	-14.0	330	1	1	431.7093	1	
62	0	435.5148	0	460	1105	2857	4205	507	-12.0	263	0	1	436.5871	0	
63	1	442.9506	0	460	1105	2857	4205	507	-12.0	263	0	0	443.7817	1	
64	0	448.6824	0	730	2058	2857	4205	502	-14.0	200	1	1	449.2628	1	
65	0	454.9697	0	730	2058	2857	4205	510	-14.0	263	1	1	455.7790	1	
66	0	460.5220	0	730	2058	2857	4205	503	-14.0	330	1	1	461.3036	1	
67	0	465.8192	0	460	1105	2857	4205	506	-12.0	459	0	0	466.5751	1	
68	0	474.0356	0	460	1105	2857	4205	504	-12.0	149	0	0	474.8585	1	
69	0	482.5441	1	730	2058	2857	4205	511	-14.0	200	1	1	483.1951	1	
70	0	487.8291	0	730	2058	2857	4205	504	-14.0	149	1	1	491.7054	1	
71	0	497.7253	0	730	2058	2857	4205	511	-14.0	200	1	1	498.7335	1	
72	0	504.5045	0	460	1105	2857	4205	505	-12.0	263	0	1	505.7806	0	
73	1	516.3155	1	460	1105	2857	4205	505	-12.0	263	0	0	521.0473	1	
74	0	529.3461	1	460	1105	2857	4205	507	-12.0	459	0	0	533.0149	1	
75	0	539.0915	0	460	1105	2857	4205	506	-12.0	330	0	1	540.5575	0	
