Trial	CorrectionTrial?	StartTime	CenterReward?	F1	F2	F3	F4	HoldTime	Atten	Pitch	Side	Response	RespTime	Correct	
1	0	430.170	0	460	1105	2857	4205	1001	-13.0	263	0	0	434.199	1	
2	0	449.318	0	730	2058	2857	4205	751	-21.0	409	1	0	455.299	0	
3	1	469.843	0	730	2058	2857	4205	751	-21.0	409	1	0	471.493	0	
4	1	496.742	0	730	2058	2857	4205	751	-21.0	409	1	0	497.537	0	
5	1	504.393	0	730	2058	2857	4205	751	-21.0	409	1	0	517.422	0	
6	1	530.741	0	730	2058	2857	4205	751	-21.0	409	1	0	550.152	0	
7	1	562.242	0	730	2058	2857	4205	751	-21.0	409	1	0	582.032	0	
8	1	596.115	0	730	2058	2857	4205	751	-21.0	409	1	0	616.141	0	
9	1	622.789	0	730	2058	2857	4205	751	-21.0	409	1	0	624.006	0	
10	1	634.919	1	730	2058	2857	4205	751	-21.0	409	1	-1	-1.000	0	
11	0	660.935	0	460	1105	2857	4205	501	-14.5	330	0	1	663.006	0	
12	1	672.363	0	460	1105	2857	4205	501	-14.5	330	0	0	673.592	1	
13	0	676.358	0	730	2058	2857	4205	661	-18.0	200	1	0	687.528	0	
14	1	701.153	0	730	2058	2857	4205	661	-18.0	200	1	0	702.525	0	
15	1	715.221	0	730	2058	2857	4205	661	-18.0	200	1	0	717.177	0	
16	1	723.258	1	730	2058	2857	4205	661	-18.0	200	1	0	743.298	0	
17	1	755.925	0	730	2058	2857	4205	661	-18.0	200	1	1	761.842	1	
18	0	789.270	0	460	1105	2857	4205	561	-19.0	149	0	1	797.923	0	
19	1	807.766	0	460	1105	2857	4205	561	-19.0	149	0	1	809.438	0	
20	1	815.635	1	460	1105	2857	4205	561	-19.0	149	0	1	816.836	0	
21	1	831.803	0	460	1105	2857	4205	561	-19.0	149	0	0	833.104	1	
22	0	842.579	0	460	1105	2857	4205	681	-13.0	499	0	0	844.060	1	
23	0	850.964	0	460	1105	2857	4205	541	-16.0	499	0	0	852.105	1	
24	0	858.749	0	730	2058	2857	4205	641	-16.5	330	1	1	860.109	1	
25	0	879.103	0	730	2058	2857	4205	621	-19.5	409	1	1	880.155	1	
26	0	892.793	0	730	2058	2857	4205	521	-18.0	200	1	1	893.461	1	
27	0	905.465	0	460	1105	2857	4205	661	-14.5	149	0	0	907.282	1	
28	0	911.962	0	730	2058	2857	4205	541	-21.0	263	1	1	917.307	1	
29	0	935.121	0	460	1105	2857	4205	581	-17.5	200	0	1	936.661	0	
30	1	944.310	0	460	1105	2857	4205	581	-17.5	200	0	1	945.331	0	
31	1	966.034	0	460	1105	2857	4205	581	-17.5	200	0	0	966.899	1	
32	0	974.563	0	730	2058	2857	4205	601	-21.0	263	1	0	975.645	0	
33	1	988.894	0	730	2058	2857	4205	601	-21.0	263	1	1	990.438	1	
34	0	1009.239	0	730	2058	2857	4205	561	-18.0	330	1	1	1010.927	1	
35	0	1017.085	1	460	1105	2857	4205	621	-13.0	409	0	0	1017.962	1	
36	0	1025.125	0	460	1105	2857	4205	521	-14.5	499	0	0	1028.394	1	
37	0	1034.711	0	730	2058	2857	4205	641	-18.0	149	1	0	1035.465	0	
38	1	1048.333	0	730	2058	2857	4205	641	-18.0	149	1	1	1050.019	1	
39	0	1057.782	0	460	1105	2857	4205	501	-17.5	263	0	1	1061.747	0	
40	1	1068.731	0	460	1105	2857	4205	501	-17.5	263	0	0	1069.684	1	
41	0	1077.638	0	730	2058	2857	4205	681	-15.0	149	1	0	1078.557	0	
42	1	1090.218	0	730	2058	2857	4205	681	-15.0	149	1	1	1091.279	1	
43	0	1103.542	0	460	1105	2857	4205	681	-17.5	200	0	0	1104.648	1	
44	0	1110.905	0	730	2058	2857	4205	701	-21.0	330	1	1	1113.351	1	
45	0	1119.593	0	460	1105	2857	4205	561	-14.5	409	0	0	1120.881	1	
46	0	1129.312	0	730	2058	2857	4205	501	-15.0	499	1	1	1135.522	1	
47	0	1146.715	0	730	2058	2857	4205	541	-19.5	499	1	1	1147.372	1	
48	0	1160.373	0	730	2058	2857	4205	621	-18.0	263	1	0	1161.463	0	
49	1	1172.004	0	730	2058	2857	4205	621	-18.0	263	1	1	1172.930	1	
50	0	1184.060	0	460	1105	2857	4205	661	-19.0	330	0	0	1184.865	1	
51	0	1191.334	0	460	1105	2857	4205	641	-13.0	149	0	0	1191.928	1	
52	0	1198.793	0	730	2058	2857	4205	521	-15.0	200	1	0	1199.839	0	
53	1	1211.949	0	730	2058	2857	4205	521	-15.0	200	1	1	1212.758	1	
54	0	1223.687	0	460	1105	2857	4205	601	-14.5	409	0	0	1224.611	1	
55	0	1230.387	0	730	2058	2857	4205	581	-21.0	263	1	1	1231.918	1	
56	0	1249.139	0	730	2058	2857	4205	661	-19.5	200	1	1	1249.874	1	
57	0	1256.061	0	460	1105	2857	4205	681	-19.0	499	0	1	1256.755	0	
58	1	1264.849	0	460	1105	2857	4205	681	-19.0	499	0	0	1265.552	1	
59	0	1276.139	1	730	2058	2857	4205	701	-15.0	409	1	1	1278.803	1	
60	0	1288.019	0	730	2058	2857	4205	541	-16.5	149	1	0	1294.255	0	
61	1	1304.268	0	730	2058	2857	4205	541	-16.5	149	1	1	1305.267	1	
62	0	1315.227	0	460	1105	2857	4205	521	-17.5	330	0	1	1317.077	0	
63	1	1327.928	1	460	1105	2857	4205	521	-17.5	330	0	0	1328.732	1	
64	0	1340.184	0	730	2058	2857	4205	501	-21.0	149	1	1	1341.292	1	
65	0	1352.937	0	460	1105	2857	4205	641	-17.5	263	0	1	1354.386	0	
66	1	1362.274	0	460	1105	2857	4205	641	-17.5	263	0	0	1363.390	1	
67	0	1374.711	0	460	1105	2857	4205	601	-16.0	200	0	0	1375.523	1	
68	0	1381.336	0	460	1105	2857	4205	621	-14.5	499	0	0	1382.021	1	
69	0	1387.955	0	730	2058	2857	4205	601	-15.0	409	1	1	1389.832	1	
70	0	1395.779	0	460	1105	2857	4205	621	-14.5	330	0	0	1397.161	1	
71	0	1401.583	0	730	2058	2857	4205	641	-19.5	149	1	1	1403.494	1	
72	0	1410.761	0	460	1105	2857	4205	661	-16.0	263	0	1	1411.329	0	
73	1	1417.332	0	460	1105	2857	4205	661	-16.0	263	0	0	1418.045	1	
74	0	1428.846	0	730	2058	2857	4205	561	-16.5	330	1	1	1429.555	1	
75	0	1434.872	0	460	1105	2857	4205	541	-19.0	409	0	0	1435.839	1	
76	0	1441.176	0	460	1105	2857	4205	501	-17.5	200	0	0	1441.964	1	
77	0	1447.878	0	730	2058	2857	4205	521	-18.0	499	1	1	1450.348	1	
78	0	1457.521	0	460	1105	2857	4205	701	-14.5	330	0	1	1465.529	0	
79	1	1475.671	0	460	1105	2857	4205	701	-14.5	330	0	0	1476.544	1	
80	0	1481.970	0	730	2058	2857	4205	581	-15.0	149	1	1	1484.113	1	
81	0	1491.216	1	730	2058	2857	4205	541	-18.0	200	1	1	1493.167	1	
82	0	1499.109	1	460	1105	2857	4205	581	-19.0	499	0	0	1506.339	1	
83	0	1512.695	0	730	2058	2857	4205	641	-18.0	409	1	1	1514.362	1	
84	0	1523.933	0	730	2058	2857	4205	701	-19.5	263	1	1	1524.734	1	
85	0	1529.537	0	460	1105	2857	4205	661	-14.5	330	0	0	1530.463	1	
86	0	1536.337	0	730	2058	2857	4205	601	-21.0	409	1	1	1537.604	1	
87	0	1541.868	0	460	1105	2857	4205	501	-14.5	499	0	0	1542.551	1	
88	0	1548.135	0	460	1105	2857	4205	521	-13.0	263	0	0	1548.798	1	
89	0	1554.286	0	460	1105	2857	4205	621	-17.5	149	0	0	1554.978	1	
90	0	1559.724	0	730	2058	2857	4205	561	-18.0	200	1	1	1560.897	1	
91	0	1570.532	0	730	2058	2857	4205	541	-19.5	409	1	1	1571.023	1	
92	0	1576.310	0	730	2058	2857	4205	581	-16.5	149	1	1	1577.163	1	
93	0	1582.546	0	730	2058	2857	4205	561	-21.0	263	1	1	1583.772	1	
94	0	1589.167	0	460	1105	2857	4205	601	-13.0	499	0	0	1590.209	1	
95	0	1595.373	0	460	1105	2857	4205	521	-17.5	200	0	0	1596.027	1	
96	0	1600.825	0	730	2058	2857	4205	621	-21.0	330	1	1	1601.749	1	
97	0	1607.595	0	460	1105	2857	4205	661	-13.0	263	0	0	1608.647	1	
98	0	1632.967	0	730	2058	2857	4205	701	-18.0	409	1	1	1634.667	1	
99	0	1640.851	0	460	1105	2857	4205	641	-17.5	149	0	1	1642.395	0	
100	1	1661.855	0	460	1105	2857	4205	641	-17.5	149	0	-1	-1.000	0	
101	0	1807.179	0	460	1105	2857	4205	501	-14.5	200	0	-1	-1.000	0	
