Trial	CorrectionTrial?	StartTime	CenterReward?	F1	F2	F3	F4	HoldTime	Atten	Pitch	Side	Response	RespTime	Correct	
1	0	5.4760	0	460	1105	2857	4205	651	0.0	330	0	0	6.4960	1	
2	0	9.8533	0	730	2058	2857	4205	701	-0.0	459	1	0	10.6456	0	
3	1	20.3887	0	730	2058	2857	4205	701	-0.0	459	1	0	21.1732	0	
4	1	31.4285	0	730	2058	2857	4205	701	-0.0	459	1	1	33.3892	1	
5	0	35.0952	0	460	1105	2857	4205	501	-0.0	200	0	0	36.1546	1	
6	0	38.2420	1	730	2058	2857	4205	851	-0.0	263	1	1	40.4030	1	
7	0	42.5711	1	730	2058	2857	4205	601	-0.0	149	1	0	44.4432	0	
8	1	62.6248	0	730	2058	2857	4205	601	-0.0	149	1	1	73.2528	1	
9	0	87.5616	0	730	2058	2857	4205	1001	-0.0	459	1	1	92.2403	1	
10	0	94.1816	0	460	1105	2857	4205	751	-0.0	263	0	0	95.0722	1	
11	0	97.1065	0	460	1105	2857	4205	551	0.0	330	0	0	98.0398	1	
12	0	100.3768	0	460	1105	2857	4205	901	-0.0	200	0	0	100.9384	1	
13	0	103.6967	0	730	2058	2857	4205	951	-0.0	149	1	0	104.0998	0	
14	1	122.6948	0	730	2058	2857	4205	951	-0.0	149	1	1	126.5227	1	
15	0	127.9957	1	460	1105	2857	4205	701	-0.0	200	0	1	131.1049	0	
16	1	137.8625	0	460	1105	2857	4205	701	-0.0	200	0	0	138.7008	1	
17	0	140.8957	0	730	2058	2857	4205	801	-0.0	149	1	0	141.7373	0	
18	1	147.9634	0	730	2058	2857	4205	801	-0.0	149	1	1	148.7736	1	
19	0	168.4505	0	730	2058	2857	4205	501	-0.0	330	1	0	169.2406	0	
20	1	178.8882	0	730	2058	2857	4205	501	-0.0	330	1	1	179.5270	1	
21	0	186.4775	0	460	1105	2857	4205	1001	-0.0	459	0	0	187.1013	1	
22	0	191.1779	0	730	2058	2857	4205	751	0.0	263	1	1	192.1736	1	
23	0	198.5012	0	460	1105	2857	4205	951	-0.0	263	0	0	198.9438	1	
24	0	201.4077	0	460	1105	2857	4205	551	0.0	149	0	0	202.2025	1	
25	0	209.3898	0	730	2058	2857	4205	851	-0.0	459	1	1	209.8070	1	
26	0	214.9156	0	460	1105	2857	4205	901	-0.0	330	0	0	215.4217	1	
27	0	220.2426	0	730	2058	2857	4205	601	-0.0	200	1	1	221.0790	1	
28	0	226.5274	0	460	1105	2857	4205	651	-0.0	200	0	0	227.2927	1	
29	0	230.0202	0	730	2058	2857	4205	751	-0.0	459	1	1	230.4742	1	
30	0	236.3049	0	730	2058	2857	4205	951	-0.0	149	1	1	236.7325	1	
31	0	243.5163	1	460	1105	2857	4205	601	0.0	330	0	0	244.1615	1	
32	0	246.3738	0	730	2058	2857	4205	551	-0.0	263	1	1	247.0740	1	
33	0	252.4187	0	730	2058	2857	4205	1001	-0.0	330	1	1	252.8271	1	
34	0	258.4147	0	460	1105	2857	4205	901	0.0	263	0	0	258.5623	1	
35	0	261.0053	0	730	2058	2857	4205	701	-0.0	459	1	1	261.3710	1	
36	0	267.1678	0	460	1105	2857	4205	801	-0.0	149	0	0	267.8816	1	
37	0	270.1015	0	460	1105	2857	4205	501	-0.0	200	0	0	270.8346	1	
38	0	273.1273	0	460	1105	2857	4205	551	0.0	149	0	0	273.6956	1	
39	0	275.9724	0	730	2058	2857	4205	651	-0.0	200	1	1	276.7772	1	
40	0	279.3624	0	460	1105	2857	4205	601	-0.0	330	0	1	280.4403	0	
41	1	287.5683	1	460	1105	2857	4205	601	-0.0	330	0	1	289.0425	0	
42	1	295.2085	0	460	1105	2857	4205	601	-0.0	330	0	0	295.9242	1	
43	0	298.4483	0	460	1105	2857	4205	701	-0.0	263	0	0	298.9275	1	
44	0	301.4151	0	730	2058	2857	4205	501	0.0	459	1	1	302.2029	1	
45	0	304.8891	0	730	2058	2857	4205	1001	-0.0	149	1	1	305.7518	1	
46	0	309.3682	0	730	2058	2857	4205	951	-0.0	200	1	1	310.1495	1	
47	0	312.9415	0	460	1105	2857	4205	901	0.0	330	0	0	313.2793	1	
48	0	315.7929	0	460	1105	2857	4205	751	-0.0	459	0	0	316.3029	1	
49	0	318.9410	0	730	2058	2857	4205	801	-0.0	263	1	0	319.3149	0	
50	1	325.3399	0	730	2058	2857	4205	801	-0.0	263	1	1	327.5650	1	
51	0	334.1066	0	460	1105	2857	4205	501	-0.0	200	0	0	334.7848	1	
52	0	337.9369	0	460	1105	2857	4205	801	-0.0	263	0	0	338.3014	1	
53	0	340.7717	0	460	1105	2857	4205	951	-0.0	149	0	0	341.5202	1	
54	0	344.0491	1	730	2058	2857	4205	1001	0.0	459	1	0	344.9991	0	
55	1	370.7841	0	730	2058	2857	4205	1001	0.0	459	1	1	371.0970	1	
56	0	374.4477	0	460	1105	2857	4205	701	-0.0	330	0	0	374.9356	1	
57	0	377.5420	0	730	2058	2857	4205	551	-0.0	200	1	1	379.2708	1	
58	0	382.6116	1	730	2058	2857	4205	651	-0.0	149	1	-1	-1.0000	0	
59	0	431.0752	0	730	2058	2857	4205	601	0.0	330	1	1	432.1142	1	
60	0	435.2923	0	730	2058	2857	4205	751	0.0	263	1	1	435.9734	1	
61	0	438.4618	0	460	1105	2857	4205	901	-0.0	459	0	0	438.8685	1	
62	0	441.3977	0	730	2058	2857	4205	551	-0.0	263	1	1	442.4142	1	
63	0	444.6109	0	460	1105	2857	4205	901	-0.0	149	0	0	445.0918	1	
64	0	446.7773	0	730	2058	2857	4205	501	-0.0	200	1	0	447.6199	0	
65	1	455.6152	0	730	2058	2857	4205	501	-0.0	200	1	1	456.8208	1	
66	0	465.9683	0	460	1105	2857	4205	1001	0.0	459	0	0	466.0952	1	
67	0	468.6185	1	730	2058	2857	4205	951	-0.0	330	1	1	469.7743	1	
68	0	472.7257	0	460	1105	2857	4205	701	-0.0	459	0	0	473.0936	1	
69	0	475.5714	0	730	2058	2857	4205	601	-0.0	200	1	0	476.3063	0	
70	1	483.1924	0	730	2058	2857	4205	601	-0.0	200	1	1	484.5608	1	
71	0	487.5170	1	460	1105	2857	4205	851	-0.0	330	0	1	488.8407	0	
72	1	501.6046	1	460	1105	2857	4205	851	-0.0	330	0	1	503.4612	0	
73	1	512.4291	0	460	1105	2857	4205	851	-0.0	330	0	0	513.0559	1	
74	0	516.9027	0	460	1105	2857	4205	651	-0.0	149	0	0	517.3157	1	
75	0	520.0477	0	730	2058	2857	4205	801	0.0	263	1	1	520.5960	1	
76	0	523.6481	0	730	2058	2857	4205	651	-0.0	330	1	0	524.3211	0	
77	1	531.4147	0	730	2058	2857	4205	651	-0.0	330	1	1	532.1553	1	
78	0	534.5920	0	730	2058	2857	4205	601	-0.0	459	1	0	535.4176	0	
79	1	582.5178	0	730	2058	2857	4205	601	-0.0	459	1	1	583.3286	1	
80	0	609.0129	0	730	2058	2857	4205	951	-0.0	149	1	1	609.7976	1	
81	0	673.8510	0	460	1105	2857	4205	1001	0.0	263	0	0	674.3589	1	
82	0	679.8118	0	460	1105	2857	4205	701	-0.0	200	0	0	680.3207	1	
83	0	682.6605	0	730	2058	2857	4205	851	-0.0	330	1	1	683.0908	1	
84	0	690.2333	0	460	1105	2857	4205	901	-0.0	200	0	0	690.8217	1	
85	0	693.5497	0	460	1105	2857	4205	801	0.0	459	0	0	694.0660	1	
86	0	697.1435	0	730	2058	2857	4205	751	-0.0	263	1	1	697.6528	1	
87	0	699.8431	0	460	1105	2857	4205	551	-0.0	149	0	0	700.2732	1	
88	0	702.2309	1	460	1105	2857	4205	551	0.0	200	0	0	703.2114	1	
89	0	706.3954	0	460	1105	2857	4205	601	-0.0	459	0	0	706.9068	1	
90	0	709.2451	0	730	2058	2857	4205	1001	-0.0	330	1	0	709.7082	0	
91	1	716.8844	0	730	2058	2857	4205	1001	-0.0	330	1	1	717.7724	1	
92	0	722.1049	0	730	2058	2857	4205	901	-0.0	149	1	0	722.7293	0	
93	1	764.7619	0	730	2058	2857	4205	901	-0.0	149	1	0	766.3292	0	
94	1	849.1280	0	730	2058	2857	4205	901	-0.0	149	1	1	850.1795	1	
95	0	853.1303	0	730	2058	2857	4205	501	0.0	263	1	0	853.9646	0	
96	1	1008.0336	0	730	2058	2857	4205	501	0.0	263	1	1	1008.1223	1	
97	0	1012.4995	0	460	1105	2857	4205	951	-0.0	330	0	0	1013.1366	1	
98	0	1016.3508	0	730	2058	2857	4205	751	-0.0	263	1	1	1017.3177	1	
99	0	1198.2419	0	730	2058	2857	4205	851	-0.0	149	1	0	1199.1738	0	
100	1	1307.0835	0	730	2058	2857	4205	851	-0.0	149	1	1	1307.6215	1	
101	0	1311.1828	0	460	1105	2857	4205	651	-0.0	459	0	0	1311.4615	1	
102	0	1314.5487	0	460	1105	2857	4205	701	-0.0	200	0	0	1315.2484	1	
103	0	1317.0379	0	730	2058	2857	4205	601	-0.0	459	1	1	1317.6823	1	
104	0	1320.0175	0	460	1105	2857	4205	901	-0.0	330	0	0	1320.3437	1	
105	0	1323.0845	0	460	1105	2857	4205	751	0.0	200	0	0	1323.4881	1	
106	0	1326.2832	0	460	1105	2857	4205	501	-0.0	263	0	1	1328.0317	0	
107	1	1380.0047	0	460	1105	2857	4205	501	-0.0	263	0	1	1382.2052	0	
108	1	1435.9731	0	460	1105	2857	4205	501	-0.0	263	0	0	1437.0454	1	
109	0	1439.4932	0	730	2058	2857	4205	551	-0.0	149	1	1	1443.1642	1	
110	0	1445.9064	0	460	1105	2857	4205	1001	-0.0	459	0	0	1446.6058	1	
111	0	1451.0352	0	730	2058	2857	4205	951	-0.0	149	1	0	1451.3178	0	
112	1	1499.0580	1	730	2058	2857	4205	951	-0.0	149	1	0	1500.3515	0	
