Trial	CorrectionTrial?	StartTime	CenterReward?	F1	F2	F3	F4	HoldTime	Atten	Pitch	Side	Response	RespTime	Correct	
1	0	12.0647	0	730	2058	2857	4205	1001	-10.0	459	1	1	14.5000	1	
2	0	36.7205	1	460	1105	2857	4205	851	-10.0	200	0	0	38.4992	1	
3	0	52.7810	0	460	1105	2857	4205	901	-10.0	330	0	0	53.2124	1	
4	0	61.7309	0	460	1105	2857	4205	501	-10.0	149	0	0	62.4364	1	
5	0	67.6292	0	730	2058	2857	4205	551	-10.0	263	1	1	68.4477	1	
6	0	84.6614	1	730	2058	2857	4205	751	-10.0	459	1	1	86.9767	1	
7	0	97.5766	0	460	1105	2857	4205	601	-10.0	200	0	0	98.2330	1	
8	0	113.0803	1	730	2058	2857	4205	701	-10.0	330	1	1	114.8149	1	
9	0	124.4308	0	730	2058	2857	4205	801	-10.0	263	1	1	125.2379	1	
10	0	138.1917	0	460	1105	2857	4205	951	-10.0	149	0	0	138.6056	1	
11	0	144.7209	0	460	1105	2857	4205	851	-10.0	459	0	0	145.0489	1	
12	0	153.8959	0	460	1105	2857	4205	901	-10.0	200	0	0	154.2474	1	
13	0	159.3249	0	730	2058	2857	4205	751	-10.0	263	1	1	160.0891	1	
14	0	171.6083	0	730	2058	2857	4205	651	-10.0	330	1	1	172.3569	1	
15	0	187.0622	0	460	1105	2857	4205	601	-10.0	149	0	0	187.6051	1	
16	0	200.2109	0	460	1105	2857	4205	951	-10.0	200	0	0	200.5450	1	
17	0	205.6446	1	730	2058	2857	4205	501	-10.0	330	1	1	207.3067	1	
18	0	211.5150	0	460	1105	2857	4205	701	-10.0	263	0	1	213.1801	0	
19	1	225.1655	0	460	1105	2857	4205	701	-10.0	263	0	0	225.6483	1	
20	0	236.3345	0	730	2058	2857	4205	1001	-10.0	459	1	1	236.8741	1	
21	0	251.5297	0	730	2058	2857	4205	801	-10.0	149	1	0	252.1097	0	
22	1	259.8858	0	730	2058	2857	4205	801	-10.0	149	1	1	260.8549	1	
23	0	271.0409	0	730	2058	2857	4205	1001	-10.0	330	1	1	272.0779	1	
24	0	282.9540	0	730	2058	2857	4205	601	-10.0	200	1	1	283.7597	1	
25	0	302.5294	0	460	1105	2857	4205	651	-10.0	149	0	0	303.1902	1	
26	0	308.5503	1	730	2058	2857	4205	801	-10.0	459	1	1	310.2395	1	
27	0	323.1412	0	460	1105	2857	4205	951	-10.0	263	0	0	323.5168	1	
28	0	328.7425	0	730	2058	2857	4205	701	-10.0	459	1	1	330.0142	1	
29	0	342.4850	0	460	1105	2857	4205	751	-10.0	200	0	0	342.9245	1	
30	0	347.1173	0	460	1105	2857	4205	501	-10.0	330	0	0	347.6129	1	
31	0	357.2363	1	460	1105	2857	4205	851	-10.0	149	0	0	357.5387	1	
32	0	362.2843	0	730	2058	2857	4205	551	-10.0	263	1	0	363.4622	0	
33	1	369.5223	0	730	2058	2857	4205	551	-10.0	263	1	1	370.3574	1	
34	0	381.0643	0	730	2058	2857	4205	501	-10.0	330	1	1	382.2357	1	
35	0	398.1780	0	460	1105	2857	4205	801	-10.0	459	0	0	398.6047	1	
36	0	403.8888	0	730	2058	2857	4205	601	-10.0	200	1	1	404.9483	1	
37	0	418.3315	0	460	1105	2857	4205	551	-10.0	263	0	0	418.9701	1	
38	0	424.0939	0	730	2058	2857	4205	701	-10.0	149	1	0	424.4273	0	
39	1	430.3436	0	730	2058	2857	4205	701	-10.0	149	1	1	431.1937	1	
40	0	440.8715	0	730	2058	2857	4205	651	-10.0	200	1	1	441.5110	1	
41	0	463.6992	0	460	1105	2857	4205	1001	-10.0	330	0	0	464.0893	1	
42	0	469.2401	0	730	2058	2857	4205	901	-10.0	263	1	1	470.3803	1	
43	0	485.2342	0	460	1105	2857	4205	851	-10.0	149	0	0	485.6658	1	
44	0	491.1181	0	460	1105	2857	4205	951	-10.0	459	0	0	491.4026	1	
45	0	496.7757	0	460	1105	2857	4205	601	-10.0	263	0	0	497.1805	1	
46	0	499.7403	1	460	1105	2857	4205	701	-10.0	200	0	0	500.3007	1	
47	0	504.8184	0	730	2058	2857	4205	651	-10.0	149	1	0	506.0435	0	
48	1	512.3793	0	730	2058	2857	4205	651	-10.0	149	1	1	513.4999	1	
49	0	524.1966	0	460	1105	2857	4205	751	-10.0	459	0	0	524.8790	1	
50	0	530.2501	0	730	2058	2857	4205	901	-10.0	330	1	1	531.2263	1	
51	0	540.6675	0	730	2058	2857	4205	551	-10.0	200	1	1	541.4827	1	
52	0	554.0974	0	730	2058	2857	4205	951	-10.0	263	1	1	554.7193	1	
53	0	565.5142	0	730	2058	2857	4205	801	-10.0	459	1	1	566.4755	1	
54	0	591.6910	0	460	1105	2857	4205	851	-10.0	330	0	0	592.1238	1	
55	0	602.5517	0	460	1105	2857	4205	1001	-10.0	149	0	0	603.1421	1	
56	0	613.4514	0	460	1105	2857	4205	1001	-10.0	200	0	0	613.7854	1	
57	0	619.4572	0	460	1105	2857	4205	901	-10.0	263	0	0	619.8702	1	
58	0	625.2826	1	730	2058	2857	4205	801	-10.0	149	1	1	627.7982	1	
59	0	629.4253	0	460	1105	2857	4205	601	-10.0	459	0	0	630.1858	1	
60	0	634.5587	0	730	2058	2857	4205	651	-10.0	330	1	1	636.3906	1	
61	0	650.5351	0	730	2058	2857	4205	851	-10.0	459	1	1	651.6506	1	
62	0	664.1872	0	460	1105	2857	4205	501	-10.0	200	0	0	664.7644	1	
63	0	669.8340	0	730	2058	2857	4205	551	-10.0	149	1	1	670.8727	1	
64	0	679.9953	0	730	2058	2857	4205	701	-10.0	330	1	1	680.7136	1	
65	0	694.9734	0	460	1105	2857	4205	751	-10.0	263	0	0	695.3547	1	
66	0	709.1308	0	460	1105	2857	4205	951	-10.0	149	0	0	709.4851	1	
67	0	714.5140	0	730	2058	2857	4205	751	-10.0	200	1	1	715.5053	1	
68	0	729.2015	1	730	2058	2857	4205	1001	-10.0	459	1	1	730.8018	1	
69	0	744.4284	0	460	1105	2857	4205	701	-10.0	330	0	0	744.9714	1	
70	0	749.9294	0	730	2058	2857	4205	851	-10.0	263	1	1	751.1051	1	
71	0	759.6294	0	730	2058	2857	4205	601	-10.0	330	1	1	760.6707	1	
72	0	775.8057	1	460	1105	2857	4205	901	-10.0	459	0	0	776.0756	1	
73	0	780.8798	0	460	1105	2857	4205	551	-10.0	149	0	0	781.3162	1	
74	0	787.2579	0	460	1105	2857	4205	651	-10.0	263	0	0	787.6515	1	
75	0	793.4449	0	730	2058	2857	4205	801	-10.0	200	1	1	794.6321	1	
76	0	801.9468	0	460	1105	2857	4205	651	-10.0	200	0	0	802.5126	1	
77	0	807.4393	0	460	1105	2857	4205	801	-10.0	459	0	0	807.8059	1	
78	0	812.6744	0	730	2058	2857	4205	601	-10.0	330	1	0	813.4726	0	
79	1	820.7054	1	730	2058	2857	4205	601	-10.0	330	1	0	821.4885	0	
80	1	829.8881	0	730	2058	2857	4205	601	-10.0	330	1	1	830.6273	1	
81	0	843.9245	0	730	2058	2857	4205	1001	-10.0	263	1	1	844.4422	1	
82	0	855.9713	1	460	1105	2857	4205	901	-10.0	149	0	0	856.3486	1	
83	0	863.5246	0	730	2058	2857	4205	951	-10.0	459	1	1	864.2827	1	
84	0	876.7898	0	730	2058	2857	4205	501	-10.0	200	1	1	877.8116	1	
85	0	893.7951	1	460	1105	2857	4205	851	-10.0	263	0	0	894.3983	1	
86	0	901.6560	0	730	2058	2857	4205	551	-10.0	330	1	0	902.2435	0	
87	1	911.3145	0	730	2058	2857	4205	551	-10.0	330	1	1	912.2075	1	
88	0	922.8897	0	460	1105	2857	4205	751	-10.0	149	0	0	923.4439	1	
89	0	931.2529	0	730	2058	2857	4205	701	-10.0	149	1	0	931.8097	0	
90	1	939.0732	0	730	2058	2857	4205	701	-10.0	149	1	0	939.7222	0	
91	1	946.6135	0	730	2058	2857	4205	701	-10.0	149	1	1	947.0539	1	
92	0	959.1780	0	730	2058	2857	4205	801	-10.0	330	1	0	959.9386	0	
93	1	968.1522	0	730	2058	2857	4205	801	-10.0	330	1	1	969.1813	1	
94	0	979.8257	0	730	2058	2857	4205	651	-10.0	459	1	1	980.7641	1	
95	0	990.5266	1	460	1105	2857	4205	501	-10.0	263	0	0	991.6260	1	
96	0	996.8614	0	730	2058	2857	4205	601	-10.0	200	1	1	997.9614	1	
97	0	1011.5253	0	730	2058	2857	4205	851	-10.0	330	1	0	1011.9494	0	
98	1	1017.8335	0	730	2058	2857	4205	851	-10.0	330	1	1	1019.2001	1	
99	0	1042.1259	1	460	1105	2857	4205	901	-10.0	459	0	0	1042.6049	1	
100	0	1048.0302	1	460	1105	2857	4205	951	-10.0	149	0	0	1053.7755	1	
101	0	1062.9110	0	460	1105	2857	4205	1001	-10.0	263	0	0	1063.7738	1	
102	0	1068.9201	0	460	1105	2857	4205	551	-10.0	200	0	0	1069.4151	1	
103	0	1074.8613	0	460	1105	2857	4205	551	-10.0	263	0	0	1075.3183	1	
104	0	1083.9284	0	460	1105	2857	4205	651	-10.0	200	0	0	1084.9337	1	
105	0	1090.7892	0	730	2058	2857	4205	751	-10.0	149	1	0	1091.8778	0	
106	1	1099.3697	0	730	2058	2857	4205	751	-10.0	149	1	1	1100.7381	1	
107	0	1108.7255	0	460	1105	2857	4205	501	-10.0	459	0	0	1109.3552	1	
108	0	1114.4983	1	730	2058	2857	4205	601	-10.0	330	1	1	1115.8955	1	
109	0	1125.3955	0	730	2058	2857	4205	901	-10.0	330	1	0	1129.2920	0	
110	1	1136.1364	0	730	2058	2857	4205	901	-10.0	330	1	1	1137.1241	1	
111	0	1145.9979	0	460	1105	2857	4205	951	-10.0	200	0	0	1146.6615	1	
112	0	1152.6173	0	460	1105	2857	4205	701	-10.0	459	0	0	1153.0773	1	
113	0	1159.0300	0	730	2058	2857	4205	1001	-10.0	149	1	0	1159.4573	0	
114	1	1169.2498	0	730	2058	2857	4205	1001	-10.0	149	1	0	1169.9997	0	
115	1	1178.3918	0	730	2058	2857	4205	1001	-10.0	149	1	1	1179.2024	1	
116	0	1188.6492	0	730	2058	2857	4205	851	-10.0	263	1	1	1189.6541	1	
117	0	1197.2199	0	730	2058	2857	4205	851	-10.0	459	1	1	1197.8374	1	
118	0	1216.6470	0	460	1105	2857	4205	1001	-10.0	149	0	0	1216.9798	1	
119	0	1227.3731	0	460	1105	2857	4205	801	-10.0	330	0	0	1227.6908	1	
120	0	1232.3946	0	730	2058	2857	4205	601	-10.0	200	1	1	1233.8446	1	
121	0	1243.8403	0	730	2058	2857	4205	501	-10.0	263	1	1	1245.6469	1	
122	0	1255.2761	0	730	2058	2857	4205	751	-10.0	330	1	1	1256.9856	1	
123	0	1266.1542	0	460	1105	2857	4205	651	-10.0	200	0	0	1266.7976	1	
124	0	1279.9120	0	460	1105	2857	4205	951	-10.0	149	0	0	1280.2233	1	
125	0	1286.4428	0	460	1105	2857	4205	901	-10.0	263	0	0	1286.7765	1	
126	0	1292.4606	0	730	2058	2857	4205	701	-10.0	459	1	0	1293.1711	0	
