Trial	CorrectionTrial?	StartTime	CenterReward?	F1	F2	F3	F4	HoldTime	Atten	Pitch	Side	Response	RespTime	Correct	
1	0	14.9961	0	730	2058	2857	4205	951	-14.0	200	1	1	15.4864	1	
2	0	23.2598	0	460	1105	2857	4205	551	-12.0	149	0	0	25.7235	1	
3	0	31.5654	0	730	2058	2857	4205	651	-14.0	330	1	1	32.4160	1	
4	0	36.8329	0	730	2058	2857	4205	601	-14.0	459	1	1	37.3274	1	
5	0	41.9822	0	460	1105	2857	4205	501	-12.0	200	0	0	45.5899	1	
6	0	52.3135	0	460	1105	2857	4205	701	-12.0	330	0	0	56.6244	1	
7	0	63.4733	0	460	1105	2857	4205	751	-12.0	459	0	0	64.1664	1	
8	0	76.4657	1	730	2058	2857	4205	1001	-14.0	149	1	1	76.7966	1	
9	0	82.3747	0	730	2058	2857	4205	801	-14.0	263	1	1	84.2166	1	
10	0	89.0845	0	730	2058	2857	4205	801	-14.0	200	1	1	90.1806	1	
11	0	95.4352	1	460	1105	2857	4205	601	-12.0	263	0	1	100.6248	0	
12	1	107.7332	0	460	1105	2857	4205	601	-12.0	263	0	0	110.0995	1	
13	0	115.8808	0	579	1508	2857	4205	501	-12.0	200	-1	0	117.1607	-1	
14	0	124.1284	0	460	1105	2857	4205	751	-12.0	149	0	0	124.4939	1	
15	0	130.1068	0	460	1105	2857	4205	551	-12.0	330	0	0	130.3429	1	
16	0	138.0339	0	730	2058	2857	4205	651	-14.0	149	1	1	138.5809	1	
17	0	149.9873	0	730	2058	2857	4205	851	-14.0	330	1	0	151.3361	0	
18	1	160.7681	0	730	2058	2857	4205	851	-14.0	330	1	1	161.1308	1	
19	0	167.6705	0	460	1105	2857	4205	951	-12.0	263	0	0	169.4792	1	
20	0	176.5978	0	460	1105	2857	4205	501	-12.0	459	0	0	177.2094	1	
21	0	185.3688	1	579	1508	2857	4205	501	-12.0	200	-1	1	186.0897	-1	
22	0	190.6911	0	730	2058	2857	4205	951	-14.0	330	1	1	192.7521	1	
23	0	198.4550	0	460	1105	2857	4205	801	-12.0	149	0	0	199.5819	1	
24	0	204.6147	0	460	1105	2857	4205	501	-12.0	459	0	0	205.1022	1	
25	0	211.0146	0	730	2058	2857	4205	651	-14.0	263	1	1	211.3864	1	
26	0	216.0342	0	730	2058	2857	4205	751	-14.0	200	1	1	216.2279	1	
27	0	234.1237	1	460	1105	2857	4205	851	-12.0	200	0	1	240.3134	0	
28	1	246.4802	1	460	1105	2857	4205	851	-12.0	200	0	0	249.2478	1	
29	0	254.8239	0	730	2058	2857	4205	701	-14.0	459	1	0	256.1211	0	
30	1	263.7842	0	730	2058	2857	4205	701	-14.0	459	1	1	264.2271	1	
31	0	268.4957	0	730	2058	2857	4205	1001	-14.0	330	1	1	268.8603	1	
32	0	274.0878	0	460	1105	2857	4205	601	-12.0	263	0	0	274.4062	1	
33	0	281.1119	0	730	2058	2857	4205	901	-14.0	149	1	1	281.4421	1	
34	0	296.1527	0	460	1105	2857	4205	1001	-12.0	149	0	0	296.5933	1	
35	0	305.5349	0	460	1105	2857	4205	851	-12.0	459	0	0	305.8802	1	
36	0	311.7267	0	730	2058	2857	4205	901	-14.0	200	1	1	312.1774	1	
37	0	316.6542	0	460	1105	2857	4205	651	-12.0	330	0	0	317.1378	1	
38	0	322.1364	0	579	1508	2857	4205	501	-12.0	200	-1	0	322.8318	-1	
39	0	329.6396	0	730	2058	2857	4205	801	-14.0	200	1	1	329.9820	1	
40	0	334.7623	0	730	2058	2857	4205	701	-14.0	149	1	1	335.1466	1	
41	0	339.8813	0	730	2058	2857	4205	551	-14.0	459	1	0	340.2370	0	
42	1	348.7109	0	730	2058	2857	4205	551	-14.0	459	1	0	349.3773	0	
43	1	356.3317	0	730	2058	2857	4205	551	-14.0	459	1	1	356.8872	1	
44	0	361.6294	0	579	1508	2857	4205	501	-12.0	200	-1	1	362.1468	-1	
45	0	366.0632	0	460	1105	2857	4205	951	-12.0	330	0	0	366.9933	1	
46	0	373.5420	0	730	2058	2857	4205	551	-14.0	200	1	1	374.1066	1	
47	0	378.8756	0	730	2058	2857	4205	751	-14.0	149	1	1	379.7417	1	
48	0	389.2947	0	460	1105	2857	4205	1001	-12.0	459	0	0	389.7673	1	
49	0	395.0141	0	460	1105	2857	4205	651	-12.0	330	0	0	395.9532	1	
50	0	401.6547	0	460	1105	2857	4205	701	-12.0	263	0	0	402.0166	1	
51	0	409.3184	0	579	1508	2857	4205	501	-12.0	200	-1	1	410.0663	-1	
52	0	419.8036	0	460	1105	2857	4205	901	-12.0	330	0	0	420.1631	1	
53	0	425.2502	0	730	2058	2857	4205	851	-14.0	263	1	1	425.7468	1	
54	0	429.9674	0	460	1105	2857	4205	501	-12.0	459	0	0	431.1345	1	
55	0	437.6499	0	730	2058	2857	4205	951	-14.0	200	1	0	437.9436	0	
56	1	447.4120	0	730	2058	2857	4205	951	-14.0	200	1	1	447.9357	1	
57	0	455.1998	0	730	2058	2857	4205	1001	-14.0	200	1	1	455.8712	1	
58	0	460.3673	0	460	1105	2857	4205	551	-12.0	330	0	0	461.1046	1	
59	0	466.9859	1	730	2058	2857	4205	851	-14.0	149	1	1	470.4508	1	
60	0	477.5228	1	460	1105	2857	4205	901	-12.0	459	0	0	483.4826	1	
61	0	491.8542	1	730	2058	2857	4205	801	-14.0	263	1	1	494.8847	1	
62	0	498.1755	0	730	2058	2857	4205	501	-14.0	149	1	1	498.8216	1	
63	0	502.8570	0	730	2058	2857	4205	601	-14.0	263	1	0	503.6552	0	
64	1	512.2849	1	730	2058	2857	4205	601	-14.0	263	1	1	512.8459	1	
65	0	516.4673	0	730	2058	2857	4205	701	-14.0	200	1	1	517.9042	1	
66	0	521.2354	0	460	1105	2857	4205	751	-12.0	330	0	0	523.1525	1	
67	0	528.5340	0	579	1508	2857	4205	501	-12.0	200	-1	0	529.3015	-1	
68	0	536.1960	0	460	1105	2857	4205	901	-12.0	263	0	0	536.5594	1	
69	0	542.7711	0	460	1105	2857	4205	1001	-12.0	330	0	0	543.4763	1	
70	0	549.6004	0	460	1105	2857	4205	751	-12.0	459	0	0	549.8960	1	
71	0	555.2985	0	730	2058	2857	4205	701	-14.0	149	1	1	555.6308	1	
72	0	560.2088	1	579	1508	2857	4205	501	-12.0	200	-1	1	563.2014	-1	
73	0	567.2908	0	730	2058	2857	4205	851	-14.0	200	1	1	568.4281	1	
74	0	572.7123	0	460	1105	2857	4205	551	-12.0	263	0	0	574.2391	1	
75	0	579.9144	0	460	1105	2857	4205	801	-12.0	330	0	0	580.2536	1	
76	0	586.3384	1	730	2058	2857	4205	601	-14.0	149	1	1	588.6092	1	
77	0	592.5454	0	460	1105	2857	4205	501	-12.0	459	0	0	594.2234	1	
78	0	599.5124	0	460	1105	2857	4205	951	-12.0	149	0	0	600.7338	1	
79	0	607.6350	0	730	2058	2857	4205	901	-14.0	200	1	1	608.1017	1	
80	0	611.6283	0	730	2058	2857	4205	701	-14.0	263	1	0	612.2740	0	
81	1	620.7502	0	730	2058	2857	4205	701	-14.0	263	1	1	621.0055	1	
82	0	626.0900	0	460	1105	2857	4205	651	-12.0	459	0	1	627.2649	0	
83	1	639.0111	0	460	1105	2857	4205	651	-12.0	459	0	0	639.4649	1	
84	0	643.8595	0	730	2058	2857	4205	751	-14.0	330	1	1	645.0236	1	
85	0	648.5023	0	730	2058	2857	4205	801	-14.0	330	1	1	649.3343	1	
86	0	653.7671	0	460	1105	2857	4205	501	-12.0	459	0	0	654.5858	1	
87	0	662.5717	0	460	1105	2857	4205	851	-12.0	200	0	0	663.4279	1	
88	0	670.2589	0	460	1105	2857	4205	1001	-12.0	263	0	0	670.3795	1	
89	0	677.2981	0	730	2058	2857	4205	551	-14.0	149	1	1	677.8105	1	
90	0	681.5701	0	579	1508	2857	4205	501	-12.0	200	-1	1	682.4092	-1	
91	0	685.7771	0	730	2058	2857	4205	701	-14.0	149	1	1	686.1233	1	
92	0	693.6822	1	460	1105	2857	4205	551	-12.0	263	0	1	696.8553	0	
93	1	703.9668	0	460	1105	2857	4205	551	-12.0	263	0	0	704.5190	1	
94	0	710.9509	0	730	2058	2857	4205	751	-14.0	459	1	1	711.7341	1	
95	0	715.5762	0	730	2058	2857	4205	1001	-14.0	200	1	1	715.9633	1	
96	0	719.3965	0	579	1508	2857	4205	501	-12.0	200	-1	1	720.6019	-1	
97	0	746.4398	0	460	1105	2857	4205	951	-12.0	330	0	1	752.5917	0	
98	1	765.6395	0	460	1105	2857	4205	951	-12.0	330	0	0	767.8385	1	
