Trial	CorrectionTrial?	StartTime	CenterReward?	F1	F2	F3	F4	HoldTime	Atten	Pitch	Side	Response	RespTime	Correct	
1	0	27.942	0	460	1105	2857	4205	601	-12.0	200	0	0	46.153	1	
2	0	50.313	0	730	2058	2857	4205	751	-9.0	200	1	1	56.061	1	
3	0	68.028	0	460	1105	2857	4205	801	-15.0	200	0	1	68.028	0	
4	1	84.007	0	460	1105	2857	4205	801	-15.0	200	0	1	85.932	0	
5	1	97.135	0	460	1105	2857	4205	801	-15.0	200	0	1	105.347	0	
6	1	116.969	0	460	1105	2857	4205	801	-15.0	200	0	0	118.113	1	
7	0	125.431	1	730	2058	2857	4205	501	-12.0	200	-1	0	127.261	-1	
8	0	132.455	0	460	1105	2857	4205	651	-10.5	200	0	0	134.828	1	
9	0	143.984	0	730	2058	2857	4205	551	-13.5	200	1	1	146.556	1	
10	0	147.915	0	460	1105	2857	4205	851	-15.0	200	0	0	149.965	1	
11	0	157.050	0	460	1105	2857	4205	551	-12.0	200	0	0	158.060	1	
12	0	167.729	0	730	2058	2857	4205	501	-9.0	200	-1	1	167.729	-1	
13	0	186.310	0	730	2058	2857	4205	701	-10.5	200	1	1	188.274	1	
14	0	195.713	0	460	1105	2857	4205	651	-9.0	200	0	0	196.918	1	
15	0	201.438	0	460	1105	2857	4205	501	-15.0	200	-1	0	202.694	-1	
16	0	222.708	0	730	2058	2857	4205	1001	-12.0	200	1	1	223.663	1	
17	0	229.730	1	460	1105	2857	4205	951	-10.5	200	0	1	230.418	0	
18	1	244.560	0	460	1105	2857	4205	951	-10.5	200	0	1	245.664	0	
19	1	275.675	0	460	1105	2857	4205	951	-10.5	200	0	0	276.887	1	
20	0	286.999	0	460	1105	2857	4205	501	-15.0	200	0	0	287.826	1	
21	0	297.944	0	460	1105	2857	4205	901	-13.5	200	0	0	298.848	1	
22	0	308.215	0	730	2058	2857	4205	801	-9.0	200	1	1	314.927	1	
23	0	319.366	0	730	2058	2857	4205	601	-15.0	200	1	1	320.840	1	
24	0	325.239	0	460	1105	2857	4205	501	-12.0	200	-1	1	326.997	-1	
25	0	332.002	0	460	1105	2857	4205	501	-9.0	200	-1	0	333.819	-1	
26	0	341.406	0	730	2058	2857	4205	801	-13.5	200	1	1	342.944	1	
27	0	348.846	0	460	1105	2857	4205	501	-15.0	200	-1	1	350.383	-1	
28	0	355.594	0	460	1105	2857	4205	951	-13.5	200	0	0	356.478	1	
29	0	364.136	0	730	2058	2857	4205	501	-9.0	200	-1	0	365.446	-1	
30	0	371.046	0	460	1105	2857	4205	501	-10.5	200	-1	0	372.853	-1	
31	0	379.904	0	460	1105	2857	4205	1001	-13.5	200	0	0	380.796	1	
32	0	386.449	0	730	2058	2857	4205	501	-9.0	200	-1	0	387.800	-1	
33	0	394.123	0	460	1105	2857	4205	651	-10.5	200	0	0	395.991	1	
34	0	402.788	1	460	1105	2857	4205	501	-15.0	200	-1	0	404.291	-1	
35	0	406.251	0	730	2058	2857	4205	901	-9.0	200	1	1	406.251	1	
36	0	412.880	0	730	2058	2857	4205	501	-15.0	200	-1	1	414.884	-1	
37	0	419.764	0	730	2058	2857	4205	751	-12.0	200	1	1	420.725	1	
38	0	427.088	1	730	2058	2857	4205	851	-10.5	200	1	1	428.091	1	
39	0	432.826	0	460	1105	2857	4205	551	-10.5	200	0	1	445.045	0	
40	1	461.117	0	460	1105	2857	4205	551	-10.5	200	0	0	462.199	1	
41	0	467.178	0	730	2058	2857	4205	501	-15.0	200	1	1	469.563	1	
42	0	477.089	0	730	2058	2857	4205	951	-12.0	200	1	1	478.494	1	
43	0	491.542	1	730	2058	2857	4205	1001	-9.0	200	1	1	492.430	1	
44	0	497.818	0	460	1105	2857	4205	901	-9.0	200	0	0	499.676	1	
45	0	508.771	1	730	2058	2857	4205	851	-15.0	200	1	1	525.173	1	
46	0	531.326	0	460	1105	2857	4205	501	-12.0	200	0	0	532.508	1	
47	0	539.844	0	730	2058	2857	4205	501	-10.5	200	-1	0	541.056	-1	
48	0	549.882	0	730	2058	2857	4205	501	-12.0	200	-1	0	551.158	-1	
49	0	558.100	0	730	2058	2857	4205	651	-10.5	200	1	1	560.261	1	
50	0	574.040	0	730	2058	2857	4205	501	-15.0	200	-1	1	576.243	-1	
51	0	591.376	0	460	1105	2857	4205	951	-9.0	200	0	0	592.476	1	
52	0	599.924	0	460	1105	2857	4205	501	-13.5	200	-1	0	600.614	-1	
53	0	617.989	1	460	1105	2857	4205	751	-9.0	200	0	0	619.691	1	
54	0	626.067	0	460	1105	2857	4205	651	-15.0	200	0	0	629.939	1	
55	0	635.144	0	730	2058	2857	4205	951	-10.5	200	1	0	639.826	0	
56	1	656.599	0	730	2058	2857	4205	951	-10.5	200	1	1	657.906	1	
57	0	668.347	0	460	1105	2857	4205	501	-15.0	200	-1	0	669.364	-1	
58	0	677.103	0	460	1105	2857	4205	551	-9.0	200	0	0	677.810	1	
59	0	682.323	0	730	2058	2857	4205	801	-13.5	200	1	1	683.553	1	
60	0	687.997	0	730	2058	2857	4205	501	-10.5	200	-1	1	689.668	-1	
61	0	695.470	1	730	2058	2857	4205	751	-9.0	200	1	0	696.561	0	
62	1	712.156	0	730	2058	2857	4205	751	-9.0	200	1	1	713.509	1	
63	0	718.951	1	460	1105	2857	4205	901	-10.5	200	0	1	728.942	0	
64	1	742.445	0	460	1105	2857	4205	901	-10.5	200	0	0	744.439	1	
65	0	750.124	0	730	2058	2857	4205	701	-12.0	200	1	1	756.232	1	
66	0	762.962	0	460	1105	2857	4205	601	-15.0	200	0	0	764.711	1	
67	0	780.922	0	460	1105	2857	4205	851	-10.5	200	0	1	786.150	0	
68	1	797.532	0	460	1105	2857	4205	851	-10.5	200	0	0	798.763	1	
69	0	810.198	0	730	2058	2857	4205	701	-15.0	200	1	1	811.129	1	
70	0	819.876	0	730	2058	2857	4205	651	-12.0	200	1	1	821.154	1	
71	0	825.936	0	460	1105	2857	4205	551	-13.5	200	0	0	827.246	1	
72	0	835.073	0	730	2058	2857	4205	1001	-15.0	200	1	0	836.483	0	
73	1	851.283	0	730	2058	2857	4205	1001	-15.0	200	1	1	852.547	1	
74	0	857.123	0	460	1105	2857	4205	601	-12.0	200	0	1	858.523	0	
75	1	871.163	0	460	1105	2857	4205	601	-12.0	200	0	0	872.448	1	
76	0	877.308	0	460	1105	2857	4205	951	-10.5	200	0	0	878.359	1	
77	0	884.239	0	730	2058	2857	4205	501	-13.5	200	1	0	885.909	0	
78	1	900.015	0	730	2058	2857	4205	501	-13.5	200	1	1	901.118	1	
79	0	906.340	0	730	2058	2857	4205	901	-12.0	200	1	1	907.408	1	
80	0	912.301	0	730	2058	2857	4205	751	-13.5	200	1	1	913.356	1	
81	0	918.478	0	460	1105	2857	4205	901	-10.5	200	0	0	919.670	1	
82	0	925.504	0	730	2058	2857	4205	751	-15.0	200	1	1	927.408	1	
83	0	932.429	0	730	2058	2857	4205	651	-9.0	200	1	1	933.597	1	
84	0	939.520	0	730	2058	2857	4205	801	-15.0	200	1	0	940.498	0	
85	1	953.083	0	730	2058	2857	4205	801	-15.0	200	1	1	954.211	1	
86	0	958.665	0	460	1105	2857	4205	501	-10.5	200	-1	0	960.766	-1	
87	0	966.900	0	460	1105	2857	4205	951	-13.5	200	0	0	968.015	1	
88	0	973.519	0	460	1105	2857	4205	701	-13.5	200	0	0	975.105	1	
89	0	979.613	0	730	2058	2857	4205	501	-10.5	200	1	0	981.700	0	
90	1	996.425	0	730	2058	2857	4205	501	-10.5	200	1	1	997.672	1	
91	0	1001.928	0	730	2058	2857	4205	501	-15.0	200	-1	1	1003.638	-1	
92	0	1008.254	0	730	2058	2857	4205	551	-12.0	200	1	1	1009.543	1	
93	0	1014.713	0	730	2058	2857	4205	501	-15.0	200	-1	1	1016.112	-1	
94	0	1021.088	0	460	1105	2857	4205	951	-9.0	200	0	0	1022.351	1	
95	0	1026.810	0	730	2058	2857	4205	801	-13.5	200	1	1	1028.488	1	
96	0	1033.950	0	460	1105	2857	4205	701	-10.5	200	0	0	1035.134	1	
97	0	1042.159	0	460	1105	2857	4205	1001	-13.5	200	0	0	1043.421	1	
98	0	1047.719	0	460	1105	2857	4205	501	-9.0	200	0	0	1049.399	1	
99	0	1056.274	0	730	2058	2857	4205	901	-10.5	200	1	0	1057.602	0	
100	1	1072.980	0	730	2058	2857	4205	901	-10.5	200	1	1	1073.737	1	
101	0	1080.760	0	460	1105	2857	4205	751	-15.0	200	0	0	1082.003	1	
102	0	1091.149	0	730	2058	2857	4205	601	-13.5	200	1	0	1092.247	0	
103	1	1103.321	0	730	2058	2857	4205	601	-13.5	200	1	1	1104.787	1	
104	0	1109.240	0	730	2058	2857	4205	551	-12.0	200	1	1	1110.082	1	
105	0	1115.635	0	460	1105	2857	4205	551	-9.0	200	0	0	1117.204	1	
106	0	1122.616	0	460	1105	2857	4205	651	-15.0	200	0	0	1123.795	1	
107	0	1128.254	0	460	1105	2857	4205	801	-10.5	200	0	0	1129.715	1	
108	0	1135.563	0	730	2058	2857	4205	501	-12.0	200	-1	0	1136.959	-1	
109	0	1141.364	1	460	1105	2857	4205	601	-15.0	200	0	0	1143.345	1	
110	0	1148.065	0	730	2058	2857	4205	751	-9.0	200	1	1	1149.632	1	
111	0	1154.930	0	460	1105	2857	4205	701	-9.0	200	0	1	1162.205	0	
112	1	1183.236	0	460	1105	2857	4205	701	-9.0	200	0	0	1194.869	1	
113	0	1202.873	0	460	1105	2857	4205	901	-12.0	200	0	0	1203.477	1	
114	0	1209.752	0	730	2058	2857	4205	501	-10.5	200	1	0	1211.038	0	
115	1	1223.463	0	730	2058	2857	4205	501	-10.5	200	1	1	1224.735	1	
116	0	1230.221	0	730	2058	2857	4205	851	-13.5	200	1	0	1231.120	0	
117	1	1244.927	0	730	2058	2857	4205	851	-13.5	200	1	0	1246.046	0	
118	1	1260.996	0	730	2058	2857	4205	851	-13.5	200	1	1	1262.083	1	
119	0	1271.688	0	460	1105	2857	4205	1001	-15.0	200	0	0	1272.759	1	
120	0	1279.215	0	730	2058	2857	4205	501	-10.5	200	-1	0	1279.869	-1	
121	0	1286.698	0	460	1105	2857	4205	901	-13.5	200	0	0	1287.325	1	
122	0	1292.023	0	730	2058	2857	4205	601	-9.0	200	1	0	1293.560	0	
123	1	1304.941	0	730	2058	2857	4205	601	-9.0	200	1	1	1306.177	1	
