Trial	CorrectionTrial?	StartTime	CenterReward?	F1	F2	F3	F4	HoldTime	Atten	Pitch	Side	Response	RespTime	Correct	
1	0	9.1391	0	460	1105	2857	4205	651	-15.0	200	0	1	9.8853	0	
2	1	25.8405	0	460	1105	2857	4205	651	-15.0	200	0	1	26.7220	0	
3	1	38.3168	0	460	1105	2857	4205	651	-15.0	200	0	1	39.4972	0	
4	1	50.6749	1	460	1105	2857	4205	651	-15.0	200	0	0	51.7381	1	
5	0	56.4781	0	460	1105	2857	4205	551	-15.0	200	0	0	59.7046	1	
6	0	70.1966	0	460	1105	2857	4205	501	-20.0	200	-1	0	71.2506	-1	
7	0	77.3279	0	730	2058	2857	4205	701	-11.0	200	1	1	78.6417	1	
8	0	84.6196	1	460	1105	2857	4205	1001	-15.0	200	0	1	85.3527	0	
9	1	96.5004	0	460	1105	2857	4205	1001	-15.0	200	0	0	97.9515	1	
10	0	103.2599	0	730	2058	2857	4205	501	-11.0	200	1	1	103.9941	1	
11	0	109.0111	0	730	2058	2857	4205	501	-18.5	200	-1	0	110.1708	-1	
12	0	115.2785	1	730	2058	2857	4205	601	-11.0	200	1	1	119.0451	1	
13	0	123.0031	1	460	1105	2857	4205	751	-15.0	200	0	0	124.0110	1	
14	0	129.6789	0	460	1105	2857	4205	901	-9.0	200	0	0	134.7870	1	
15	0	139.4670	0	730	2058	2857	4205	851	-11.0	200	1	1	140.7369	1	
16	0	146.2089	0	730	2058	2857	4205	501	-18.5	200	-1	0	147.2169	-1	
17	0	152.3417	0	460	1105	2857	4205	951	-15.0	200	0	0	153.8277	1	
18	0	162.9771	0	460	1105	2857	4205	501	-20.0	200	-1	0	165.3892	-1	
19	0	170.7508	0	730	2058	2857	4205	901	-17.0	200	1	1	171.5352	1	
20	0	176.2359	0	730	2058	2857	4205	751	-11.0	200	1	1	176.8333	1	
21	0	182.5693	0	460	1105	2857	4205	1001	-9.0	200	0	0	183.3862	1	
22	0	188.1119	0	730	2058	2857	4205	551	-17.0	200	1	1	189.1321	1	
23	0	194.6906	1	460	1105	2857	4205	701	-15.0	200	0	1	195.7211	0	
24	1	212.5295	0	460	1105	2857	4205	701	-15.0	200	0	0	214.2749	1	
25	0	218.2195	0	730	2058	2857	4205	651	-11.0	200	1	1	219.1885	1	
26	0	224.3148	0	730	2058	2857	4205	501	-18.5	200	-1	0	225.5195	-1	
27	0	231.8351	0	460	1105	2857	4205	501	-20.0	200	-1	0	233.5510	-1	
28	0	239.0952	0	730	2058	2857	4205	501	-11.0	200	1	1	240.0742	1	
29	0	247.0953	0	460	1105	2857	4205	601	-15.0	200	0	0	247.9372	1	
30	0	256.3865	1	460	1105	2857	4205	751	-9.0	200	0	0	258.7141	1	
31	0	263.1456	1	730	2058	2857	4205	551	-17.0	200	1	1	264.2142	1	
32	0	275.4946	1	730	2058	2857	4205	901	-11.0	200	1	1	277.2772	1	
33	0	281.9268	0	460	1105	2857	4205	951	-9.0	200	0	0	286.9880	1	
34	0	291.6894	0	460	1105	2857	4205	801	-15.0	200	0	0	293.5203	1	
35	0	297.8588	0	460	1105	2857	4205	501	-20.0	200	-1	0	299.5160	-1	
36	0	305.3439	0	730	2058	2857	4205	551	-17.0	200	1	1	306.4089	1	
37	0	310.9911	0	730	2058	2857	4205	501	-18.5	200	-1	1	311.7136	-1	
38	0	317.5396	0	460	1105	2857	4205	1001	-15.0	200	0	0	318.2457	1	
39	0	323.5202	0	460	1105	2857	4205	751	-15.0	200	0	0	325.3819	1	
40	0	330.4833	0	460	1105	2857	4205	501	-20.0	200	-1	0	332.9199	-1	
41	0	338.7590	0	730	2058	2857	4205	851	-11.0	200	1	1	339.4461	1	
42	0	343.7769	0	730	2058	2857	4205	501	-17.0	200	1	1	344.7094	1	
43	0	350.6193	0	460	1105	2857	4205	951	-15.0	200	0	1	351.1230	0	
44	1	363.9416	0	460	1105	2857	4205	951	-15.0	200	0	0	365.1374	1	
45	0	373.4628	0	730	2058	2857	4205	901	-11.0	200	1	1	374.0012	1	
46	0	380.5249	0	730	2058	2857	4205	501	-18.5	200	-1	0	381.4770	-1	
47	0	386.5246	0	730	2058	2857	4205	501	-18.5	200	-1	1	387.9130	-1	
48	0	394.4452	0	730	2058	2857	4205	601	-11.0	200	1	0	395.4123	0	
49	1	413.6187	1	730	2058	2857	4205	601	-11.0	200	1	1	414.3974	1	
50	0	420.9613	0	730	2058	2857	4205	651	-11.0	200	1	0	422.5160	0	
51	1	433.9558	0	730	2058	2857	4205	651	-11.0	200	1	1	434.8175	1	
52	0	439.0903	0	460	1105	2857	4205	501	-20.0	200	-1	0	440.5872	-1	
53	0	444.9102	0	730	2058	2857	4205	851	-11.0	200	1	1	446.1010	1	
54	0	451.4485	0	460	1105	2857	4205	951	-15.0	200	0	0	452.7391	1	
55	0	457.0680	0	460	1105	2857	4205	751	-9.0	200	0	0	458.7441	1	
56	0	464.1933	0	460	1105	2857	4205	701	-15.0	200	0	0	465.7809	1	
57	0	471.0276	0	460	1105	2857	4205	501	-20.0	200	-1	0	472.8891	-1	
58	0	477.2957	0	730	2058	2857	4205	501	-18.5	200	-1	1	478.5181	-1	
59	0	484.1666	0	730	2058	2857	4205	901	-17.0	200	1	1	484.7233	1	
60	0	492.6339	0	460	1105	2857	4205	651	-15.0	200	0	0	493.7473	1	
61	0	499.1712	0	460	1105	2857	4205	751	-9.0	200	0	0	501.0389	1	
62	0	505.9681	0	460	1105	2857	4205	551	-9.0	200	0	0	507.5132	1	
63	0	512.7331	0	730	2058	2857	4205	1001	-11.0	200	1	1	513.4275	1	
64	0	519.1302	0	730	2058	2857	4205	601	-17.0	200	1	1	520.0703	1	
65	0	526.1310	0	730	2058	2857	4205	501	-18.5	200	-1	1	527.3049	-1	
66	0	533.2880	0	460	1105	2857	4205	701	-15.0	200	0	0	534.4088	1	
67	0	540.2245	0	730	2058	2857	4205	501	-17.0	200	1	1	541.1077	1	
68	0	546.9037	0	730	2058	2857	4205	951	-17.0	200	1	1	547.6251	1	
69	0	554.7886	0	460	1105	2857	4205	701	-9.0	200	0	0	555.8550	1	
70	0	561.5893	0	730	2058	2857	4205	651	-17.0	200	1	1	562.7026	1	
71	0	569.5627	0	460	1105	2857	4205	501	-20.0	200	-1	0	570.6314	-1	
72	0	576.0808	0	460	1105	2857	4205	601	-15.0	200	0	0	577.5625	1	
73	0	582.9129	0	730	2058	2857	4205	1001	-11.0	200	1	1	583.7894	1	
74	0	588.5879	0	460	1105	2857	4205	501	-15.0	200	0	0	589.8500	1	
75	0	594.6028	0	460	1105	2857	4205	751	-9.0	200	0	0	596.0424	1	
76	0	602.7259	0	730	2058	2857	4205	901	-11.0	200	1	1	603.4796	1	
77	0	609.2258	0	730	2058	2857	4205	801	-17.0	200	1	1	609.8368	1	
78	0	617.1881	0	460	1105	2857	4205	501	-20.0	200	-1	0	618.3874	-1	
79	0	623.6287	0	460	1105	2857	4205	601	-9.0	200	0	0	625.1497	1	
80	0	630.2975	0	730	2058	2857	4205	501	-18.5	200	-1	0	632.2525	-1	
81	0	637.1483	0	730	2058	2857	4205	651	-11.0	200	1	1	637.7801	1	
82	0	642.9234	0	460	1105	2857	4205	501	-15.0	200	0	0	644.2240	1	
83	0	648.9155	0	460	1105	2857	4205	501	-20.0	200	-1	0	650.6018	-1	
84	0	656.1737	0	730	2058	2857	4205	951	-11.0	200	1	1	657.2224	1	
85	0	663.9650	0	730	2058	2857	4205	851	-11.0	200	1	1	664.5540	1	
86	0	671.2738	0	460	1105	2857	4205	751	-9.0	200	0	0	672.3355	1	
87	0	677.7871	0	460	1105	2857	4205	551	-15.0	200	0	0	679.1183	1	
88	0	684.6213	0	730	2058	2857	4205	501	-18.5	200	-1	0	686.8208	-1	
89	0	692.7527	0	730	2058	2857	4205	501	-18.5	200	-1	0	694.5382	-1	
90	0	699.0452	0	460	1105	2857	4205	601	-15.0	200	0	0	701.2748	1	
91	0	706.0062	0	460	1105	2857	4205	501	-20.0	200	-1	1	707.7364	-1	
92	0	718.8292	0	460	1105	2857	4205	901	-9.0	200	0	0	719.9560	1	
93	0	727.2715	0	460	1105	2857	4205	951	-15.0	200	0	0	729.0677	1	
94	0	734.6969	0	730	2058	2857	4205	551	-17.0	200	1	1	735.5775	1	
95	0	740.7877	0	730	2058	2857	4205	501	-17.0	200	1	1	741.5866	1	
96	0	748.3467	0	730	2058	2857	4205	1001	-11.0	200	1	1	748.9816	1	
97	0	754.2360	0	460	1105	2857	4205	651	-15.0	200	0	0	755.3978	1	
98	0	761.9532	0	730	2058	2857	4205	851	-17.0	200	1	1	762.5998	1	
99	0	768.5432	0	730	2058	2857	4205	801	-11.0	200	1	1	769.5724	1	
100	0	774.5842	0	460	1105	2857	4205	501	-20.0	200	-1	0	776.5343	-1	
101	0	782.1097	0	730	2058	2857	4205	501	-18.5	200	-1	0	783.6009	-1	
102	0	788.9517	0	460	1105	2857	4205	901	-15.0	200	0	0	790.6981	1	
103	0	800.6940	0	730	2058	2857	4205	851	-17.0	200	1	1	801.5371	1	
104	0	810.5303	0	460	1105	2857	4205	751	-9.0	200	0	0	812.4255	1	
105	0	817.9789	0	460	1105	2857	4205	1001	-9.0	200	0	0	819.7265	1	
106	0	824.8281	0	730	2058	2857	4205	601	-17.0	200	1	1	826.2040	1	
107	0	830.8725	0	730	2058	2857	4205	651	-17.0	200	1	1	831.7514	1	
108	0	838.6918	0	460	1105	2857	4205	501	-20.0	200	-1	0	840.5748	-1	
109	0	847.4628	0	730	2058	2857	4205	651	-11.0	200	1	1	848.5877	1	
110	0	853.3476	1	460	1105	2857	4205	751	-15.0	200	0	1	854.4907	0	
111	1	865.7031	0	460	1105	2857	4205	751	-15.0	200	0	0	868.4995	1	
112	0	873.7091	0	460	1105	2857	4205	601	-9.0	200	0	0	875.8571	1	
113	0	880.1051	0	730	2058	2857	4205	501	-18.5	200	-1	0	881.9811	-1	
114	0	888.0144	0	460	1105	2857	4205	1001	-9.0	200	0	0	889.1059	1	
115	0	894.3018	0	460	1105	2857	4205	701	-9.0	200	0	0	895.8996	1	
116	0	900.8675	0	460	1105	2857	4205	501	-20.0	200	-1	1	901.7849	-1	
117	0	909.6924	0	730	2058	2857	4205	901	-11.0	200	1	1	910.3843	1	
118	0	1005.0850	0	730	2058	2857	4205	851	-17.0	200	1	0	1006.9218	0	
