Trial	CorrectionTrial?	StartTime	CenterReward?	F1	F2	F3	F4	HoldTime	Atten	Pitch	Side	Response	RespTime	Correct	
1	0	3.911	0	460	1105	2857	4205	551	-12.0	200	0	0	4.712	1	
2	0	18.603	0	460	1105	2857	4205	951	-13.5	200	0	1	19.761	0	
3	1	32.739	0	460	1105	2857	4205	951	-13.5	200	0	0	41.560	1	
4	0	50.536	1	730	2058	2857	4205	901	-12.5	200	1	1	51.507	1	
5	0	59.700	0	460	1105	2857	4205	701	-15.0	200	0	0	66.042	1	
6	0	79.092	0	730	2058	2857	4205	801	-15.5	200	1	1	81.049	1	
7	0	90.088	1	460	1105	2857	4205	751	-10.5	200	0	0	91.536	1	
8	0	104.269	0	730	2058	2857	4205	651	-14.0	200	1	0	110.836	0	
9	1	135.777	0	730	2058	2857	4205	651	-14.0	200	1	1	137.262	1	
10	0	146.034	0	460	1105	2857	4205	501	-18.5	200	-1	0	146.945	-1	
11	0	153.190	1	730	2058	2857	4205	601	-14.0	200	1	1	154.259	1	
12	0	163.096	0	460	1105	2857	4205	501	-9.0	200	0	0	167.876	1	
13	0	173.962	0	730	2058	2857	4205	501	-14.0	200	-1	0	175.910	-1	
14	0	193.116	0	730	2058	2857	4205	701	-15.5	200	1	1	194.383	1	
15	0	203.676	0	460	1105	2857	4205	801	-12.0	200	0	0	204.506	1	
16	0	211.920	1	460	1105	2857	4205	751	-10.5	200	0	0	212.629	1	
17	0	219.660	0	730	2058	2857	4205	1001	-17.0	200	1	0	225.484	0	
18	1	242.785	0	730	2058	2857	4205	1001	-17.0	200	1	1	243.797	1	
19	0	253.820	0	460	1105	2857	4205	951	-15.0	200	0	1	254.866	0	
20	1	270.503	1	460	1105	2857	4205	951	-15.0	200	0	0	277.675	1	
21	0	283.754	0	730	2058	2857	4205	901	-15.5	200	1	1	285.751	1	
22	0	292.598	0	730	2058	2857	4205	601	-14.0	200	1	1	293.341	1	
23	0	299.279	0	460	1105	2857	4205	501	-14.0	200	-1	0	300.552	-1	
24	0	308.203	0	730	2058	2857	4205	1001	-15.5	200	1	0	308.912	0	
25	1	331.174	0	730	2058	2857	4205	1001	-15.5	200	1	1	332.498	1	
26	0	339.099	0	460	1105	2857	4205	701	-15.0	200	0	0	340.538	1	
27	0	347.119	0	460	1105	2857	4205	901	-10.5	200	0	0	348.637	1	
28	0	356.798	0	460	1105	2857	4205	501	-14.0	200	-1	0	358.189	-1	
29	0	363.287	0	730	2058	2857	4205	851	-11.0	200	1	1	364.954	1	
30	0	370.161	0	730	2058	2857	4205	501	-12.5	200	1	1	371.238	1	
31	0	378.784	0	730	2058	2857	4205	501	-18.5	200	-1	1	379.713	-1	
32	0	387.528	1	460	1105	2857	4205	651	-13.5	200	0	0	388.236	1	
33	0	394.042	0	460	1105	2857	4205	751	-15.0	200	0	0	399.542	1	
34	0	405.537	0	730	2058	2857	4205	551	-11.0	200	1	1	407.195	1	
35	0	418.934	0	460	1105	2857	4205	701	-13.5	200	0	0	420.541	1	
36	0	425.328	0	730	2058	2857	4205	851	-12.5	200	1	0	426.283	0	
37	1	437.791	0	730	2058	2857	4205	851	-12.5	200	1	1	438.795	1	
38	0	446.887	0	730	2058	2857	4205	751	-12.5	200	1	0	448.227	0	
39	1	472.807	0	730	2058	2857	4205	751	-12.5	200	1	0	474.386	0	
40	1	487.150	0	730	2058	2857	4205	751	-12.5	200	1	1	488.574	1	
41	0	500.003	0	730	2058	2857	4205	501	-17.0	200	-1	0	501.238	-1	
42	0	508.263	0	460	1105	2857	4205	601	-9.0	200	0	0	509.451	1	
43	0	514.066	0	460	1105	2857	4205	501	-20.0	200	-1	0	515.378	-1	
44	0	520.533	0	730	2058	2857	4205	651	-12.5	200	1	0	522.267	0	
45	1	543.942	0	730	2058	2857	4205	651	-12.5	200	1	1	545.557	1	
46	0	551.081	0	460	1105	2857	4205	501	-15.0	200	0	0	552.346	1	
47	0	558.585	0	730	2058	2857	4205	951	-11.0	200	1	1	560.358	1	
48	0	564.953	0	460	1105	2857	4205	1001	-13.5	200	0	0	566.216	1	
49	0	572.591	0	730	2058	2857	4205	701	-17.0	200	1	1	574.177	1	
50	0	580.912	0	460	1105	2857	4205	501	-17.0	200	-1	0	582.086	-1	
51	0	587.496	1	730	2058	2857	4205	801	-15.5	200	1	0	593.781	0	
52	1	611.467	0	730	2058	2857	4205	801	-15.5	200	1	1	613.458	1	
53	0	620.407	0	460	1105	2857	4205	601	-10.5	200	0	0	621.435	1	
54	0	626.256	0	460	1105	2857	4205	901	-9.0	200	0	0	627.971	1	
55	0	632.616	0	730	2058	2857	4205	501	-14.0	200	-1	0	634.225	-1	
56	0	639.116	1	460	1105	2857	4205	851	-12.0	200	0	0	645.557	1	
57	0	651.111	1	730	2058	2857	4205	1001	-15.5	200	1	0	657.764	0	
58	1	673.068	0	730	2058	2857	4205	1001	-15.5	200	1	1	673.915	1	
59	0	679.535	0	730	2058	2857	4205	651	-12.5	200	1	0	680.546	0	
60	1	691.505	0	730	2058	2857	4205	651	-12.5	200	1	1	692.712	1	
61	0	707.083	0	460	1105	2857	4205	951	-15.0	200	0	0	708.579	1	
62	0	712.682	0	460	1105	2857	4205	801	-9.0	200	0	0	714.691	1	
63	0	719.684	1	730	2058	2857	4205	501	-14.0	200	1	0	725.928	0	
64	1	741.865	0	730	2058	2857	4205	501	-14.0	200	1	0	743.340	0	
65	1	756.093	0	730	2058	2857	4205	501	-14.0	200	1	1	757.211	1	
66	0	765.287	0	460	1105	2857	4205	901	-12.0	200	0	0	766.079	1	
67	0	771.970	0	730	2058	2857	4205	501	-18.5	200	-1	0	773.494	-1	
68	0	778.714	0	460	1105	2857	4205	501	-14.0	200	-1	0	780.663	-1	
69	0	784.978	0	730	2058	2857	4205	651	-15.5	200	1	0	786.565	0	
70	1	797.472	0	730	2058	2857	4205	651	-15.5	200	1	0	799.606	0	
71	1	829.634	0	730	2058	2857	4205	651	-15.5	200	1	0	831.168	0	
72	1	862.536	0	730	2058	2857	4205	651	-15.5	200	1	1	864.263	1	
73	0	873.816	1	730	2058	2857	4205	701	-12.5	200	1	0	874.958	0	
74	1	889.062	0	730	2058	2857	4205	701	-12.5	200	1	1	897.824	1	
75	0	904.453	0	730	2058	2857	4205	601	-11.0	200	1	0	905.264	0	
76	1	937.196	1	730	2058	2857	4205	601	-11.0	200	1	-1	-1.000	0	
77	0	999.293	0	460	1105	2857	4205	1001	-13.5	200	0	0	1000.442	1	
78	0	1006.666	0	460	1105	2857	4205	751	-15.0	200	0	0	1007.490	1	
79	0	1012.125	0	460	1105	2857	4205	501	-12.0	200	0	1	1013.598	0	
80	1	1037.376	0	460	1105	2857	4205	501	-12.0	200	0	0	1039.116	1	
81	0	1047.043	0	460	1105	2857	4205	501	-20.0	200	-1	0	1048.330	-1	
82	0	1052.274	0	460	1105	2857	4205	651	-13.5	200	0	0	1053.257	1	
83	0	1058.433	0	730	2058	2857	4205	801	-12.5	200	1	1	1059.720	1	
84	0	1080.442	0	730	2058	2857	4205	1001	-15.5	200	1	1	1084.420	1	
85	0	1114.831	1	730	2058	2857	4205	951	-11.0	200	1	1	1115.508	1	
86	0	1123.288	0	730	2058	2857	4205	501	-15.5	200	-1	1	1127.461	-1	
87	0	1177.283	0	730	2058	2857	4205	701	-17.0	200	1	-1	-1.000	0	
