Trial	CorrectionTrial?	StartTime	CenterReward?	F1	F2	F3	F4	HoldTime	Atten	Pitch	Side	Response	RespTime	Correct	
1	0	8.9747	0	460	1105	2857	4205	1001	-15.0	200	0	0	11.4554	1	
2	0	18.4291	0	460	1105	2857	4205	551	-15.0	200	0	1	22.8904	0	
3	1	34.4706	0	460	1105	2857	4205	551	-15.0	200	0	1	34.9307	0	
4	1	43.0670	0	460	1105	2857	4205	551	-15.0	200	0	0	44.0715	1	
5	0	49.1135	0	460	1105	2857	4205	651	-15.0	200	0	0	49.9654	1	
6	0	54.4739	0	730	2058	2857	4205	501	-18.5	200	-1	1	55.4976	-1	
7	0	59.2313	0	730	2058	2857	4205	601	-17.0	200	1	1	60.4173	1	
8	0	66.0995	0	730	2058	2857	4205	801	-11.0	200	1	1	66.7725	1	
9	0	70.4078	0	730	2058	2857	4205	501	-17.0	200	1	1	71.6405	1	
10	0	75.7732	0	460	1105	2857	4205	851	-9.0	200	0	0	77.1941	1	
11	0	84.0860	0	460	1105	2857	4205	501	-20.0	200	-1	1	85.2538	-1	
12	0	88.8284	0	730	2058	2857	4205	501	-18.5	200	-1	1	89.7308	-1	
13	0	93.9287	0	460	1105	2857	4205	601	-9.0	200	0	0	95.3576	1	
14	0	113.1237	0	460	1105	2857	4205	951	-15.0	200	0	0	114.9591	1	
15	0	123.7216	1	730	2058	2857	4205	751	-17.0	200	1	1	124.3519	1	
16	0	127.1758	0	730	2058	2857	4205	501	-17.0	200	1	0	129.9714	0	
17	1	138.2341	0	730	2058	2857	4205	501	-17.0	200	1	1	138.9702	1	
18	0	141.9985	0	730	2058	2857	4205	701	-11.0	200	1	1	143.1874	1	
19	0	146.8747	0	460	1105	2857	4205	501	-20.0	200	-1	0	148.6174	-1	
20	0	154.1147	0	730	2058	2857	4205	851	-11.0	200	1	1	154.7138	1	
21	0	158.0409	0	460	1105	2857	4205	551	-15.0	200	0	1	159.0704	0	
22	1	166.7184	0	460	1105	2857	4205	551	-15.0	200	0	0	167.9487	1	
23	0	173.7701	0	730	2058	2857	4205	651	-17.0	200	1	1	174.6282	1	
24	0	177.2598	0	460	1105	2857	4205	651	-9.0	200	0	0	179.1941	1	
25	0	200.1758	0	730	2058	2857	4205	951	-11.0	200	1	1	201.0427	1	
26	0	209.5394	0	460	1105	2857	4205	1001	-9.0	200	0	0	210.3952	1	
27	0	213.8018	0	730	2058	2857	4205	501	-18.5	200	-1	0	214.7558	-1	
28	0	219.3338	0	730	2058	2857	4205	601	-11.0	200	1	1	219.9780	1	
29	0	224.2453	0	730	2058	2857	4205	501	-18.5	200	-1	0	225.9193	-1	
30	0	230.7520	0	460	1105	2857	4205	501	-20.0	200	-1	0	234.0044	-1	
31	0	238.6681	1	460	1105	2857	4205	551	-9.0	200	0	0	242.5104	1	
32	0	246.7422	0	460	1105	2857	4205	501	-15.0	200	0	1	248.0960	0	
33	1	255.8475	0	460	1105	2857	4205	501	-15.0	200	0	0	258.7094	1	
34	0	264.7277	0	730	2058	2857	4205	701	-17.0	200	1	1	265.2641	1	
35	0	268.8056	0	730	2058	2857	4205	551	-17.0	200	1	1	269.7627	1	
36	0	275.8678	0	460	1105	2857	4205	651	-9.0	200	0	0	277.1319	1	
37	0	282.8388	0	460	1105	2857	4205	901	-9.0	200	0	0	284.0923	1	
38	0	289.7898	0	460	1105	2857	4205	501	-20.0	200	-1	0	291.3935	-1	
39	0	297.6574	0	730	2058	2857	4205	951	-17.0	200	1	0	300.1219	0	
40	1	306.9175	0	730	2058	2857	4205	951	-17.0	200	1	1	307.2350	1	
41	0	312.1662	0	460	1105	2857	4205	801	-15.0	200	0	1	313.7010	0	
42	1	325.6935	0	460	1105	2857	4205	801	-15.0	200	0	0	329.0691	1	
43	0	334.3991	0	730	2058	2857	4205	501	-17.0	200	1	1	335.8114	1	
44	0	338.6597	0	460	1105	2857	4205	751	-9.0	200	0	0	341.4802	1	
45	0	347.0051	0	730	2058	2857	4205	701	-11.0	200	1	1	348.2094	1	
46	0	351.7464	0	730	2058	2857	4205	501	-18.5	200	-1	1	352.8604	-1	
47	0	356.6681	0	730	2058	2857	4205	501	-18.5	200	-1	1	357.8019	-1	
48	0	361.4847	0	460	1105	2857	4205	701	-15.0	200	0	0	363.1012	1	
49	0	370.0351	0	460	1105	2857	4205	751	-15.0	200	0	0	371.2365	1	
50	0	377.3770	0	730	2058	2857	4205	551	-11.0	200	1	1	378.3548	1	
51	0	380.9800	0	730	2058	2857	4205	501	-11.0	200	1	1	381.8653	1	
52	0	385.6730	0	460	1105	2857	4205	801	-9.0	200	0	0	386.9791	1	
53	0	392.6867	0	460	1105	2857	4205	501	-20.0	200	-1	0	394.3139	-1	
54	0	400.3265	1	730	2058	2857	4205	1001	-11.0	200	1	0	401.9374	0	
55	1	410.8451	0	730	2058	2857	4205	1001	-11.0	200	1	1	412.0489	1	
56	0	424.6230	0	460	1105	2857	4205	651	-15.0	200	0	0	426.5073	1	
57	0	433.0219	0	460	1105	2857	4205	951	-15.0	200	0	0	435.0270	1	
58	0	440.4135	0	460	1105	2857	4205	801	-15.0	200	0	0	442.4360	1	
59	0	449.4821	0	730	2058	2857	4205	901	-17.0	200	1	1	450.2137	1	
60	0	453.0694	0	730	2058	2857	4205	551	-17.0	200	1	1	453.9247	1	
61	0	459.7222	0	730	2058	2857	4205	701	-11.0	200	1	1	460.3340	1	
62	0	463.9895	0	730	2058	2857	4205	501	-18.5	200	-1	1	465.1795	-1	
63	0	468.4761	0	460	1105	2857	4205	501	-20.0	200	-1	0	471.0687	-1	
64	0	481.0735	0	730	2058	2857	4205	501	-11.0	200	1	0	482.3448	0	
65	1	489.9518	0	730	2058	2857	4205	501	-11.0	200	1	1	490.6665	1	
66	0	494.2437	0	730	2058	2857	4205	951	-11.0	200	1	1	494.5673	1	
67	0	500.2055	0	460	1105	2857	4205	1001	-9.0	200	0	0	502.4032	1	
68	0	508.6815	0	460	1105	2857	4205	501	-20.0	200	-1	1	510.8068	-1	
69	0	513.8062	0	460	1105	2857	4205	751	-15.0	200	0	1	514.5082	0	
70	1	536.5302	0	460	1105	2857	4205	751	-15.0	200	0	0	538.2514	1	
71	0	542.9845	0	730	2058	2857	4205	501	-17.0	200	1	1	544.5505	1	
72	0	547.5077	0	460	1105	2857	4205	601	-9.0	200	0	0	548.9356	1	
73	0	553.5586	0	460	1105	2857	4205	551	-15.0	200	0	1	554.8443	0	
74	1	571.6162	0	460	1105	2857	4205	551	-15.0	200	0	0	572.7445	1	
75	0	577.7211	0	730	2058	2857	4205	701	-11.0	200	1	1	578.7156	1	
76	0	592.7602	0	730	2058	2857	4205	801	-11.0	200	1	1	593.1997	1	
77	0	627.7753	0	730	2058	2857	4205	851	-11.0	200	1	0	629.0233	0	
78	1	636.9910	0	730	2058	2857	4205	851	-11.0	200	1	1	638.0464	1	
79	0	640.5557	0	460	1105	2857	4205	501	-20.0	200	-1	1	641.3122	-1	
80	0	649.2368	0	460	1105	2857	4205	1001	-15.0	200	0	0	650.4468	1	
81	0	657.1713	0	730	2058	2857	4205	501	-18.5	200	-1	1	658.3272	-1	
82	0	660.7484	0	460	1105	2857	4205	701	-15.0	200	0	0	662.2823	1	
83	0	668.0621	0	730	2058	2857	4205	501	-18.5	200	-1	1	668.9619	-1	
84	0	704.9064	0	460	1105	2857	4205	751	-9.0	200	0	0	706.2875	1	
85	0	711.9015	0	730	2058	2857	4205	601	-11.0	200	1	1	712.3953	1	
86	0	714.8350	0	730	2058	2857	4205	551	-17.0	200	1	1	716.0633	1	
87	0	732.5998	0	730	2058	2857	4205	801	-17.0	200	1	1	732.9707	1	
88	0	755.1553	0	460	1105	2857	4205	851	-15.0	200	0	1	756.2281	0	
89	1	787.4489	0	460	1105	2857	4205	851	-15.0	200	0	0	791.4641	1	
90	0	853.6979	0	460	1105	2857	4205	651	-9.0	200	0	1	859.4255	0	
91	1	872.5364	0	460	1105	2857	4205	651	-9.0	200	0	0	873.4537	1	
92	0	890.2503	0	460	1105	2857	4205	501	-20.0	200	-1	0	893.1445	-1	
