Trial	CorrectionTrial?	StartTime	CenterReward?	F1	F2	F3	F4	HoldTime	Atten	Pitch	Side	Response	RespTime	Correct	
1	0	4.3671	0	730	2058	2857	4205	601	-17.0	200	1	1	5.7978	1	
2	0	10.7403	0	460	1105	2857	4205	651	-15.0	200	0	0	12.1319	1	
3	0	16.5335	0	460	1105	2857	4205	701	-15.0	200	0	0	18.9816	1	
4	0	23.5169	0	460	1105	2857	4205	901	-15.0	200	0	0	25.1551	1	
5	0	28.9508	0	730	2058	2857	4205	551	-17.0	200	1	1	29.3375	1	
6	0	37.3673	0	730	2058	2857	4205	951	-11.0	200	1	1	37.7981	1	
7	0	41.3263	0	730	2058	2857	4205	801	-11.0	200	1	1	41.8652	1	
8	0	46.0766	0	460	1105	2857	4205	851	-9.0	200	0	0	46.6077	1	
9	0	51.4048	0	730	2058	2857	4205	501	-18.5	200	-1	0	52.3291	-1	
10	0	57.7020	0	460	1105	2857	4205	501	-20.0	200	-1	0	61.6898	-1	
11	0	71.8908	0	730	2058	2857	4205	901	-11.0	200	1	1	72.4281	1	
12	0	76.1643	0	460	1105	2857	4205	551	-9.0	200	0	0	80.9100	1	
13	0	88.0840	0	460	1105	2857	4205	1001	-15.0	200	0	1	88.9506	0	
14	1	97.6830	0	460	1105	2857	4205	1001	-15.0	200	0	0	99.4947	1	
15	0	104.2186	0	730	2058	2857	4205	651	-17.0	200	1	1	104.5879	1	
16	0	108.2847	0	730	2058	2857	4205	751	-17.0	200	1	1	108.8321	1	
17	0	113.1041	0	460	1105	2857	4205	851	-9.0	200	0	0	114.0438	1	
18	0	118.4305	0	730	2058	2857	4205	701	-17.0	200	1	1	119.0050	1	
19	0	122.1204	0	460	1105	2857	4205	801	-9.0	200	0	0	123.3168	1	
20	0	128.7201	0	460	1105	2857	4205	851	-9.0	200	0	0	129.3563	1	
21	0	134.4744	0	730	2058	2857	4205	501	-18.5	200	-1	0	135.4537	-1	
22	0	142.2305	0	730	2058	2857	4205	801	-11.0	200	1	1	142.6486	1	
23	0	145.3140	0	460	1105	2857	4205	501	-20.0	200	-1	0	146.5020	-1	
24	0	151.7209	0	460	1105	2857	4205	1001	-9.0	200	0	0	154.3080	1	
25	0	159.8248	0	460	1105	2857	4205	951	-15.0	200	0	1	160.5213	0	
26	1	168.3537	0	460	1105	2857	4205	951	-15.0	200	0	1	170.5716	0	
27	1	180.1471	1	460	1105	2857	4205	951	-15.0	200	0	0	180.8036	1	
28	0	185.3740	0	460	1105	2857	4205	701	-9.0	200	0	0	188.5187	1	
29	0	192.9894	0	730	2058	2857	4205	501	-18.5	200	-1	0	194.6985	-1	
30	0	199.8022	0	460	1105	2857	4205	501	-20.0	200	-1	0	202.2650	-1	
31	0	207.1672	0	730	2058	2857	4205	601	-17.0	200	1	1	207.8154	1	
32	0	211.3056	0	730	2058	2857	4205	751	-11.0	200	1	1	211.7206	1	
33	0	218.6005	0	730	2058	2857	4205	901	-11.0	200	1	1	218.9174	1	
34	0	222.7917	0	460	1105	2857	4205	601	-15.0	200	0	0	224.5019	1	
35	0	229.1423	0	730	2058	2857	4205	501	-18.5	200	-1	0	230.8189	-1	
36	0	237.6332	0	460	1105	2857	4205	951	-15.0	200	0	0	239.6350	1	
37	0	248.0193	0	730	2058	2857	4205	851	-17.0	200	1	1	248.3244	1	
38	0	251.4340	0	730	2058	2857	4205	701	-11.0	200	1	1	252.6114	1	
39	0	256.5131	0	460	1105	2857	4205	801	-9.0	200	0	0	257.6700	1	
40	0	262.4934	0	460	1105	2857	4205	501	-20.0	200	-1	0	263.7960	-1	
41	0	274.8063	0	730	2058	2857	4205	1001	-11.0	200	1	1	275.1227	1	
42	0	287.4641	0	460	1105	2857	4205	551	-9.0	200	0	1	288.2470	0	
43	1	293.9893	1	460	1105	2857	4205	551	-9.0	200	0	0	297.3784	1	
44	0	301.8243	0	460	1105	2857	4205	601	-9.0	200	0	0	303.0923	1	
45	0	307.4296	0	730	2058	2857	4205	501	-18.5	200	-1	1	308.2347	-1	
46	0	312.1359	0	460	1105	2857	4205	501	-20.0	200	-1	0	313.4806	-1	
47	0	318.4084	0	730	2058	2857	4205	951	-17.0	200	1	1	318.9108	1	
48	0	321.6572	0	730	2058	2857	4205	751	-17.0	200	1	1	322.3031	1	
49	0	329.1450	0	730	2058	2857	4205	1001	-17.0	200	1	1	329.7427	1	
50	0	333.7652	0	460	1105	2857	4205	501	-15.0	200	0	0	335.4913	1	
51	0	339.8473	0	730	2058	2857	4205	801	-17.0	200	1	1	340.4322	1	
52	0	343.9558	0	730	2058	2857	4205	651	-11.0	200	1	1	344.6018	1	
53	0	349.0187	0	460	1105	2857	4205	501	-15.0	200	0	0	350.9450	1	
54	0	355.6155	1	730	2058	2857	4205	851	-11.0	200	1	1	356.0670	1	
55	0	359.4539	0	460	1105	2857	4205	501	-20.0	200	-1	1	361.9469	-1	
56	0	364.6440	0	730	2058	2857	4205	501	-18.5	200	-1	0	366.2557	-1	
57	0	371.0864	0	460	1105	2857	4205	801	-15.0	200	0	0	374.4233	1	
58	0	379.5914	0	460	1105	2857	4205	1001	-15.0	200	0	0	381.1809	1	
59	0	385.6984	0	460	1105	2857	4205	501	-20.0	200	-1	0	387.1324	-1	
60	0	392.7892	0	460	1105	2857	4205	951	-9.0	200	0	0	395.1892	1	
61	0	400.0736	0	730	2058	2857	4205	501	-18.5	200	-1	1	400.8380	-1	
62	0	404.0550	0	730	2058	2857	4205	701	-11.0	200	1	1	404.8692	1	
63	0	408.6227	0	730	2058	2857	4205	851	-11.0	200	1	1	409.2868	1	
64	0	413.5580	0	460	1105	2857	4205	701	-15.0	200	0	0	414.7185	1	
65	0	419.6833	0	730	2058	2857	4205	501	-11.0	200	1	1	420.4422	1	
66	0	423.7981	0	460	1105	2857	4205	751	-9.0	200	0	1	424.6968	0	
67	1	430.4996	0	460	1105	2857	4205	751	-9.0	200	0	0	435.6620	1	
68	0	439.9000	0	460	1105	2857	4205	501	-20.0	200	-1	0	441.7504	-1	
69	0	445.8469	1	730	2058	2857	4205	651	-11.0	200	1	0	450.2571	0	
70	1	458.8783	0	730	2058	2857	4205	651	-11.0	200	1	1	459.4259	1	
71	0	462.4420	0	460	1105	2857	4205	801	-15.0	200	0	0	464.0239	1	
72	0	469.5581	0	460	1105	2857	4205	1001	-9.0	200	0	0	471.1687	1	
73	0	475.5594	0	730	2058	2857	4205	601	-11.0	200	1	1	476.8109	1	
74	0	479.9902	1	460	1105	2857	4205	551	-15.0	200	0	1	483.3975	0	
75	1	490.4925	0	460	1105	2857	4205	551	-15.0	200	0	0	493.9801	1	
76	0	498.3616	0	730	2058	2857	4205	501	-18.5	200	-1	1	499.6626	-1	
77	0	502.4250	0	730	2058	2857	4205	551	-17.0	200	1	1	503.0072	1	
78	0	518.8360	0	730	2058	2857	4205	951	-11.0	200	1	1	519.2408	1	
79	0	523.0274	1	730	2058	2857	4205	751	-17.0	200	1	1	523.8055	1	
80	0	527.7801	0	460	1105	2857	4205	901	-15.0	200	0	1	530.5166	0	
81	1	543.0116	0	460	1105	2857	4205	901	-15.0	200	0	0	544.4899	1	
82	0	548.9626	0	460	1105	2857	4205	501	-20.0	200	-1	0	550.7680	-1	
83	0	555.1543	0	460	1105	2857	4205	501	-9.0	200	0	0	557.4013	1	
84	0	561.9663	0	730	2058	2857	4205	501	-18.5	200	-1	1	562.4388	-1	
85	0	568.2343	0	730	2058	2857	4205	651	-17.0	200	1	1	569.0129	1	
86	0	573.0385	0	460	1105	2857	4205	851	-15.0	200	0	0	574.1983	1	
87	0	579.5944	0	730	2058	2857	4205	501	-17.0	200	1	1	580.2019	1	
88	0	584.1204	0	460	1105	2857	4205	901	-15.0	200	0	0	586.5114	1	
89	0	590.8627	0	460	1105	2857	4205	501	-20.0	200	-1	1	592.1762	-1	
90	0	612.6301	0	730	2058	2857	4205	501	-18.5	200	-1	1	613.5289	-1	
91	0	620.6404	0	730	2058	2857	4205	751	-11.0	200	1	1	621.1737	1	
92	0	624.0340	0	730	2058	2857	4205	701	-11.0	200	1	1	624.6767	1	
93	0	666.8401	1	460	1105	2857	4205	601	-15.0	200	0	0	672.2211	1	
94	0	676.2519	0	460	1105	2857	4205	551	-9.0	200	0	0	677.8504	1	
95	0	689.4762	1	460	1105	2857	4205	851	-9.0	200	0	0	694.3069	1	
96	0	716.8181	0	730	2058	2857	4205	1001	-11.0	200	1	1	718.4538	1	
97	0	722.3801	1	460	1105	2857	4205	951	-9.0	200	0	1	726.1659	0	
