Trial	CorrectionTrial?	StartTime	CenterReward?	F1	F2	F3	F4	HoldTime	Atten	Pitch	Side	Response	RespTime	Correct	
1	0	14.125	0	460	1105	2857	4205	901	-9.0	200	0	1	26.993	0	
2	1	41.228	0	460	1105	2857	4205	901	-9.0	200	0	0	42.393	1	
3	0	52.514	0	730	2058	2857	4205	601	-13.5	200	1	1	53.653	1	
4	0	57.677	0	730	2058	2857	4205	551	-10.5	200	1	1	58.730	1	
5	0	69.627	1	730	2058	2857	4205	1001	-12.0	200	1	1	70.172	1	
6	0	75.094	0	460	1105	2857	4205	501	-9.0	200	-1	1	84.765	-1	
7	0	89.733	0	460	1105	2857	4205	751	-15.0	200	0	0	90.305	1	
8	0	103.054	0	460	1105	2857	4205	801	-13.5	200	0	0	103.440	1	
9	0	115.900	0	730	2058	2857	4205	701	-10.5	200	1	1	116.717	1	
10	0	121.430	0	460	1105	2857	4205	951	-13.5	200	0	0	122.158	1	
11	0	132.915	1	460	1105	2857	4205	501	-9.0	200	0	0	133.340	1	
12	0	150.416	0	460	1105	2857	4205	801	-12.0	200	0	0	151.102	1	
13	0	163.525	0	730	2058	2857	4205	1001	-15.0	200	1	1	164.204	1	
14	0	169.694	0	460	1105	2857	4205	551	-15.0	200	0	1	171.499	0	
15	1	184.332	0	460	1105	2857	4205	551	-15.0	200	0	0	185.062	1	
16	0	195.877	0	730	2058	2857	4205	501	-12.0	200	1	1	196.653	1	
17	0	202.804	0	730	2058	2857	4205	701	-10.5	200	1	1	203.568	1	
18	0	209.320	0	730	2058	2857	4205	651	-13.5	200	1	1	209.940	1	
19	0	215.116	0	730	2058	2857	4205	951	-9.0	200	1	1	215.708	1	
20	0	220.308	1	460	1105	2857	4205	601	-12.0	200	0	1	230.108	0	
21	1	243.481	0	460	1105	2857	4205	601	-12.0	200	0	0	244.812	1	
22	0	251.821	0	730	2058	2857	4205	901	-10.5	200	1	1	252.731	1	
23	0	257.665	0	460	1105	2857	4205	851	-15.0	200	0	0	258.478	1	
24	0	273.226	0	460	1105	2857	4205	951	-9.0	200	0	1	274.104	0	
25	1	287.564	0	460	1105	2857	4205	951	-9.0	200	0	1	288.637	0	
26	1	291.985	0	460	1105	2857	4205	951	-9.0	200	0	0	291.985	1	
27	0	312.884	0	730	2058	2857	4205	501	-15.0	200	-1	0	314.232	-1	
28	0	323.168	0	730	2058	2857	4205	501	-10.5	200	1	1	324.411	1	
29	0	329.039	0	730	2058	2857	4205	851	-13.5	200	1	1	329.974	1	
30	0	335.111	1	730	2058	2857	4205	501	-13.5	200	-1	1	337.226	-1	
31	0	342.227	0	730	2058	2857	4205	501	-15.0	200	-1	1	343.525	-1	
32	0	351.890	0	730	2058	2857	4205	801	-10.5	200	1	0	353.228	0	
33	1	366.265	1	730	2058	2857	4205	801	-10.5	200	1	1	367.383	1	
34	0	372.511	0	460	1105	2857	4205	501	-12.0	200	-1	1	382.495	-1	
35	0	387.771	0	460	1105	2857	4205	551	-13.5	200	0	0	389.022	1	
36	0	394.100	0	730	2058	2857	4205	551	-10.5	200	1	1	395.317	1	
37	0	400.347	0	730	2058	2857	4205	601	-9.0	200	1	1	401.614	1	
38	0	425.986	1	460	1105	2857	4205	951	-12.0	200	0	0	426.343	1	
39	0	432.844	0	460	1105	2857	4205	751	-15.0	200	0	0	433.401	1	
40	0	442.325	0	460	1105	2857	4205	651	-13.5	200	0	1	442.958	0	
41	1	453.823	0	460	1105	2857	4205	651	-13.5	200	0	0	454.402	1	
42	0	465.557	0	730	2058	2857	4205	501	-9.0	200	-1	1	466.420	-1	
43	0	471.786	0	730	2058	2857	4205	801	-9.0	200	1	1	473.030	1	
44	0	479.497	0	460	1105	2857	4205	901	-10.5	200	0	0	480.007	1	
45	0	489.103	0	460	1105	2857	4205	501	-12.0	200	-1	1	489.772	-1	
46	0	495.007	0	730	2058	2857	4205	701	-15.0	200	1	1	495.887	1	
47	0	500.987	1	730	2058	2857	4205	1001	-10.5	200	1	1	510.841	1	
48	0	516.144	1	730	2058	2857	4205	701	-9.0	200	1	1	517.261	1	
49	0	521.087	0	730	2058	2857	4205	951	-13.5	200	1	1	522.192	1	
50	0	526.722	0	460	1105	2857	4205	801	-15.0	200	0	0	527.474	1	
51	0	533.642	0	460	1105	2857	4205	901	-12.0	200	0	0	534.467	1	
52	0	543.338	0	730	2058	2857	4205	751	-15.0	200	1	1	544.413	1	
53	0	549.449	0	460	1105	2857	4205	601	-13.5	200	0	0	550.286	1	
54	0	559.572	0	460	1105	2857	4205	551	-10.5	200	0	0	561.189	1	
55	0	568.670	0	460	1105	2857	4205	501	-10.5	200	0	1	569.917	0	
56	1	583.200	1	460	1105	2857	4205	501	-10.5	200	0	0	584.077	1	
57	0	590.193	0	730	2058	2857	4205	851	-9.0	200	1	0	598.765	0	
58	1	616.811	1	730	2058	2857	4205	851	-9.0	200	1	1	618.111	1	
59	0	622.438	0	730	2058	2857	4205	551	-12.0	200	1	1	624.433	1	
60	0	629.325	0	730	2058	2857	4205	801	-15.0	200	1	1	631.224	1	
61	0	636.389	0	460	1105	2857	4205	951	-9.0	200	0	0	638.066	1	
62	0	649.825	0	730	2058	2857	4205	601	-15.0	200	1	1	651.510	1	
63	0	657.152	0	460	1105	2857	4205	1001	-13.5	200	0	0	657.716	1	
64	0	664.458	1	730	2058	2857	4205	501	-10.5	200	1	1	666.420	1	
65	0	671.061	0	730	2058	2857	4205	501	-13.5	200	-1	1	679.390	-1	
66	0	684.141	0	730	2058	2857	4205	751	-9.0	200	1	1	685.181	1	
67	0	691.225	0	460	1105	2857	4205	501	-15.0	200	-1	0	692.558	-1	
68	0	698.315	0	730	2058	2857	4205	701	-12.0	200	1	1	699.312	1	
69	0	704.310	0	460	1105	2857	4205	751	-12.0	200	0	0	705.729	1	
70	0	719.248	0	460	1105	2857	4205	501	-9.0	200	-1	0	720.318	-1	
71	0	727.340	0	730	2058	2857	4205	501	-13.5	200	-1	1	728.948	-1	
72	0	733.165	0	460	1105	2857	4205	651	-10.5	200	0	0	734.186	1	
73	0	741.461	0	730	2058	2857	4205	701	-10.5	200	1	1	742.523	1	
74	0	746.819	0	460	1105	2857	4205	801	-13.5	200	0	1	748.651	0	
75	1	760.568	0	460	1105	2857	4205	801	-13.5	200	0	0	761.451	1	
76	0	769.729	0	730	2058	2857	4205	501	-9.0	200	-1	1	770.873	-1	
77	0	775.166	0	460	1105	2857	4205	851	-15.0	200	0	0	776.790	1	
78	0	784.416	1	730	2058	2857	4205	901	-12.0	200	1	1	785.572	1	
79	0	790.023	0	730	2058	2857	4205	951	-10.5	200	1	1	791.948	1	
80	0	796.166	0	460	1105	2857	4205	801	-13.5	200	0	0	797.379	1	
81	0	803.595	0	730	2058	2857	4205	851	-9.0	200	1	1	805.872	1	
82	0	809.761	0	460	1105	2857	4205	501	-15.0	200	-1	0	811.204	-1	
83	0	821.628	0	460	1105	2857	4205	751	-13.5	200	0	0	822.396	1	
84	0	832.446	0	730	2058	2857	4205	501	-9.0	200	-1	0	833.522	-1	
85	0	846.780	0	460	1105	2857	4205	501	-10.5	200	0	0	847.783	1	
86	0	858.902	0	460	1105	2857	4205	501	-12.0	200	-1	0	859.910	-1	
87	0	866.422	0	730	2058	2857	4205	551	-9.0	200	1	1	868.110	1	
88	0	872.835	0	730	2058	2857	4205	951	-13.5	200	1	1	874.496	1	
89	0	880.671	0	730	2058	2857	4205	1001	-10.5	200	1	1	882.403	1	
90	0	888.660	0	730	2058	2857	4205	501	-12.0	200	-1	0	889.609	-1	
91	0	895.061	1	460	1105	2857	4205	851	-10.5	200	0	0	902.513	1	
92	0	910.255	0	730	2058	2857	4205	551	-9.0	200	1	0	911.621	0	
93	1	928.859	0	730	2058	2857	4205	551	-9.0	200	1	1	931.335	1	
94	0	936.508	0	730	2058	2857	4205	951	-15.0	200	1	1	937.687	1	
95	0	943.767	0	460	1105	2857	4205	751	-13.5	200	0	0	944.823	1	
96	0	948.340	0	730	2058	2857	4205	1001	-12.0	200	1	0	949.659	0	
97	1	968.181	0	730	2058	2857	4205	1001	-12.0	200	1	1	969.216	1	
98	0	973.575	0	460	1105	2857	4205	651	-10.5	200	0	0	975.366	1	
99	0	981.067	0	730	2058	2857	4205	701	-9.0	200	1	0	982.166	0	
100	1	994.583	0	730	2058	2857	4205	701	-9.0	200	1	1	995.771	1	
101	0	1000.620	0	460	1105	2857	4205	501	-9.0	200	0	0	1002.277	1	
102	0	1006.679	0	460	1105	2857	4205	801	-13.5	200	0	0	1007.860	1	
103	0	1016.122	0	730	2058	2857	4205	951	-10.5	200	1	0	1016.862	0	
104	1	1030.807	0	730	2058	2857	4205	951	-10.5	200	1	1	1031.465	1	
105	0	1036.082	0	460	1105	2857	4205	851	-12.0	200	0	0	1036.977	1	
106	0	1043.147	0	730	2058	2857	4205	701	-9.0	200	1	0	1044.827	0	
107	1	1060.485	0	730	2058	2857	4205	701	-9.0	200	1	0	1061.605	0	
108	1	1075.289	0	730	2058	2857	4205	701	-9.0	200	1	1	1076.500	1	
109	0	1081.639	0	730	2058	2857	4205	601	-15.0	200	1	1	1083.083	1	
110	0	1088.604	0	730	2058	2857	4205	501	-10.5	200	-1	0	1089.837	-1	
111	0	1096.763	0	460	1105	2857	4205	501	-12.0	200	-1	0	1097.670	-1	
112	0	1102.970	0	730	2058	2857	4205	751	-15.0	200	1	0	1104.250	0	
113	1	1128.892	0	730	2058	2857	4205	751	-15.0	200	1	0	1138.251	0	
114	1	1159.469	0	730	2058	2857	4205	751	-15.0	200	1	1	1160.091	1	
