Trial	CorrectionTrial?	StartTime	CenterReward?	F1	F2	F3	F4	HoldTime	Atten	Pitch	Side	Response	RespTime	Correct	
1	0	7.653	0	460	1105	2857	4205	551	-13.5	200	0	1	9.024	0	
2	1	25.016	0	460	1105	2857	4205	551	-13.5	200	0	0	30.418	1	
3	0	46.576	0	460	1105	2857	4205	651	-9.0	200	0	0	57.894	1	
4	0	81.763	0	730	2058	2857	4205	951	-15.0	200	1	1	82.663	1	
5	0	86.360	0	460	1105	2857	4205	851	-12.0	200	0	0	86.893	1	
6	0	99.608	1	730	2058	2857	4205	801	-9.0	200	1	1	100.554	1	
7	0	103.532	0	460	1105	2857	4205	751	-13.5	200	0	1	111.444	0	
8	1	128.226	0	460	1105	2857	4205	751	-13.5	200	0	0	128.779	1	
9	0	136.260	0	460	1105	2857	4205	901	-15.0	200	0	0	136.903	1	
10	0	148.222	0	730	2058	2857	4205	501	-10.5	200	-1	1	149.210	-1	
11	0	151.654	0	460	1105	2857	4205	501	-13.5	200	-1	0	153.562	-1	
12	0	166.039	0	730	2058	2857	4205	601	-15.0	200	1	0	168.579	0	
13	1	182.557	0	730	2058	2857	4205	601	-15.0	200	1	0	183.228	0	
14	1	201.193	0	730	2058	2857	4205	601	-15.0	200	1	1	202.189	1	
15	0	218.644	0	730	2058	2857	4205	1001	-9.0	200	1	1	219.293	1	
16	0	225.286	0	730	2058	2857	4205	501	-12.0	200	-1	1	226.540	-1	
17	0	234.184	0	730	2058	2857	4205	801	-13.5	200	1	1	234.880	1	
18	0	242.488	0	730	2058	2857	4205	701	-15.0	200	1	1	243.502	1	
19	0	251.539	0	730	2058	2857	4205	651	-9.0	200	1	1	252.540	1	
20	0	257.092	0	460	1105	2857	4205	601	-12.0	200	0	0	257.788	1	
21	0	269.810	0	730	2058	2857	4205	951	-12.0	200	1	1	270.655	1	
22	0	274.925	0	730	2058	2857	4205	851	-9.0	200	1	1	275.714	1	
23	0	283.893	0	460	1105	2857	4205	551	-15.0	200	0	0	284.551	1	
24	0	291.886	0	730	2058	2857	4205	751	-10.5	200	1	1	292.826	1	
25	0	296.717	0	730	2058	2857	4205	751	-10.5	200	1	1	297.686	1	
26	0	306.423	0	460	1105	2857	4205	851	-12.0	200	0	0	307.010	1	
27	0	319.737	0	730	2058	2857	4205	501	-9.0	200	1	1	320.768	1	
28	0	324.018	0	460	1105	2857	4205	601	-15.0	200	0	0	324.809	1	
29	0	342.902	0	460	1105	2857	4205	801	-15.0	200	0	0	343.415	1	
30	0	353.866	0	460	1105	2857	4205	501	-12.0	200	-1	0	354.731	-1	
31	0	364.419	0	730	2058	2857	4205	701	-10.5	200	1	1	365.733	1	
32	0	370.149	0	730	2058	2857	4205	1001	-9.0	200	1	1	370.823	1	
33	0	379.840	0	460	1105	2857	4205	951	-10.5	200	0	0	380.768	1	
34	0	386.012	1	460	1105	2857	4205	551	-13.5	200	0	0	387.003	1	
35	0	397.134	0	730	2058	2857	4205	801	-12.0	200	1	0	403.909	0	
36	1	417.928	0	730	2058	2857	4205	801	-12.0	200	1	1	418.575	1	
37	0	421.442	0	460	1105	2857	4205	501	-9.0	200	0	0	422.569	1	
38	0	429.704	1	460	1105	2857	4205	501	-9.0	200	-1	0	430.692	-1	
39	0	437.517	0	460	1105	2857	4205	751	-10.5	200	0	0	444.036	1	
40	0	450.704	0	460	1105	2857	4205	501	-12.0	200	-1	0	451.527	-1	
41	0	461.966	0	730	2058	2857	4205	951	-13.5	200	1	0	462.680	0	
42	1	480.460	0	730	2058	2857	4205	951	-13.5	200	1	1	481.551	1	
43	0	499.942	0	460	1105	2857	4205	1001	-15.0	200	0	0	500.884	1	
44	0	507.914	0	730	2058	2857	4205	601	-13.5	200	1	1	508.665	1	
45	0	516.996	1	730	2058	2857	4205	501	-9.0	200	-1	1	518.346	-1	
46	0	522.312	0	730	2058	2857	4205	851	-12.0	200	1	1	523.721	1	
47	0	531.059	0	730	2058	2857	4205	501	-15.0	200	-1	1	536.256	-1	
48	0	539.634	0	460	1105	2857	4205	851	-13.5	200	0	0	540.813	1	
49	0	553.392	0	730	2058	2857	4205	801	-9.0	200	1	1	554.603	1	
50	0	562.297	0	730	2058	2857	4205	501	-12.0	200	-1	1	563.811	-1	
51	0	569.434	0	730	2058	2857	4205	551	-9.0	200	1	1	570.958	1	
52	0	577.623	0	730	2058	2857	4205	501	-10.5	200	1	0	578.693	0	
53	1	596.847	0	730	2058	2857	4205	501	-10.5	200	1	1	598.035	1	
54	0	605.508	1	730	2058	2857	4205	501	-15.0	200	-1	0	606.541	-1	
55	0	611.219	0	460	1105	2857	4205	501	-12.0	200	-1	0	612.657	-1	
56	0	619.102	0	730	2058	2857	4205	951	-12.0	200	1	1	620.761	1	
57	0	623.888	0	730	2058	2857	4205	751	-10.5	200	1	1	625.079	1	
58	0	632.077	0	730	2058	2857	4205	951	-9.0	200	1	1	633.145	1	
59	0	638.764	0	460	1105	2857	4205	501	-15.0	200	-1	0	640.160	-1	
60	0	647.009	0	730	2058	2857	4205	601	-15.0	200	1	1	648.403	1	
61	0	654.536	0	730	2058	2857	4205	651	-9.0	200	1	0	655.372	0	
62	1	668.362	0	730	2058	2857	4205	651	-9.0	200	1	1	669.192	1	
63	0	675.205	0	730	2058	2857	4205	1001	-12.0	200	1	1	676.367	1	
64	0	680.229	0	730	2058	2857	4205	701	-10.5	200	1	1	681.604	1	
65	0	685.153	1	460	1105	2857	4205	751	-12.0	200	0	0	686.102	1	
66	0	691.994	0	460	1105	2857	4205	501	-15.0	200	0	0	694.192	1	
67	0	700.311	0	460	1105	2857	4205	851	-9.0	200	0	0	702.061	1	
68	0	707.120	0	460	1105	2857	4205	551	-10.5	200	0	0	708.173	1	
69	0	715.530	0	460	1105	2857	4205	751	-15.0	200	0	0	716.788	1	
70	0	726.190	0	460	1105	2857	4205	551	-12.0	200	0	0	727.307	1	
71	0	734.894	0	460	1105	2857	4205	601	-13.5	200	0	0	736.403	1	
72	0	739.882	0	730	2058	2857	4205	501	-10.5	200	-1	0	741.649	-1	
73	0	745.872	0	730	2058	2857	4205	901	-12.0	200	1	1	747.391	1	
74	0	754.490	0	460	1105	2857	4205	801	-10.5	200	0	0	755.266	1	
75	0	760.481	0	730	2058	2857	4205	651	-15.0	200	1	0	762.610	0	
76	1	777.075	0	730	2058	2857	4205	651	-15.0	200	1	1	779.048	1	
77	0	785.009	0	730	2058	2857	4205	701	-9.0	200	1	0	786.348	0	
78	1	797.840	1	730	2058	2857	4205	701	-9.0	200	1	1	799.242	1	
79	0	802.928	0	460	1105	2857	4205	951	-13.5	200	0	0	804.565	1	
80	0	809.841	0	730	2058	2857	4205	1001	-15.0	200	1	1	810.923	1	
81	0	817.201	0	460	1105	2857	4205	751	-12.0	200	0	0	820.077	1	
82	0	823.704	1	730	2058	2857	4205	551	-9.0	200	1	0	830.306	0	
83	1	853.287	0	730	2058	2857	4205	551	-9.0	200	1	1	854.523	1	
84	0	860.553	0	730	2058	2857	4205	601	-10.5	200	1	0	861.622	0	
85	1	874.605	0	730	2058	2857	4205	601	-10.5	200	1	1	876.010	1	
86	0	881.781	0	730	2058	2857	4205	901	-12.0	200	1	1	882.443	1	
87	0	891.152	0	460	1105	2857	4205	701	-15.0	200	0	0	892.096	1	
88	0	898.309	0	730	2058	2857	4205	501	-13.5	200	-1	1	900.348	-1	
89	0	906.021	0	460	1105	2857	4205	951	-10.5	200	0	0	906.597	1	
90	0	913.832	0	730	2058	2857	4205	801	-13.5	200	1	1	915.299	1	
91	0	920.481	0	460	1105	2857	4205	651	-12.0	200	0	0	921.394	1	
92	0	927.510	0	730	2058	2857	4205	1001	-9.0	200	1	0	928.633	0	
93	1	948.728	0	730	2058	2857	4205	1001	-9.0	200	1	1	949.982	1	
94	0	954.779	0	460	1105	2857	4205	501	-9.0	200	-1	0	956.032	-1	
95	0	963.178	0	460	1105	2857	4205	901	-13.5	200	0	0	963.976	1	
96	0	972.936	1	730	2058	2857	4205	701	-12.0	200	1	1	974.174	1	
97	0	979.231	0	460	1105	2857	4205	551	-15.0	200	0	0	980.240	1	
98	0	985.896	0	460	1105	2857	4205	501	-15.0	200	-1	0	987.251	-1	
99	0	991.906	0	460	1105	2857	4205	951	-9.0	200	0	0	993.831	1	
100	0	1001.419	0	460	1105	2857	4205	801	-10.5	200	0	0	1002.795	1	
101	0	1006.580	0	460	1105	2857	4205	651	-12.0	200	0	0	1008.547	1	
102	0	1012.414	0	460	1105	2857	4205	501	-13.5	200	-1	0	1013.842	-1	
103	0	1018.265	0	730	2058	2857	4205	501	-15.0	200	1	1	1020.755	1	
104	0	1025.668	0	460	1105	2857	4205	501	-10.5	200	0	0	1026.941	1	
105	0	1035.820	0	730	2058	2857	4205	601	-12.0	200	1	1	1037.140	1	
106	0	1042.168	0	460	1105	2857	4205	901	-10.5	200	0	0	1044.233	1	
107	0	1050.503	1	460	1105	2857	4205	501	-15.0	200	-1	0	1052.516	-1	
108	0	1055.996	0	460	1105	2857	4205	501	-13.5	200	-1	0	1058.041	-1	
109	0	1061.198	0	460	1105	2857	4205	951	-9.0	200	0	0	1062.593	1	
110	0	1065.862	0	460	1105	2857	4205	851	-10.5	200	0	0	1067.312	1	
111	0	1070.820	1	460	1105	2857	4205	801	-15.0	200	0	0	1077.608	1	
112	0	1081.709	0	730	2058	2857	4205	701	-12.0	200	1	1	1084.420	1	
113	0	1095.206	0	460	1105	2857	4205	751	-9.0	200	0	0	1096.886	1	
114	0	1106.289	0	460	1105	2857	4205	501	-10.5	200	-1	1	1108.531	-1	
115	0	1110.664	0	730	2058	2857	4205	501	-12.0	200	-1	0	1111.573	-1	
116	0	1118.164	0	460	1105	2857	4205	1001	-15.0	200	0	0	1119.299	1	
117	0	1128.818	0	460	1105	2857	4205	501	-10.5	200	-1	0	1129.918	-1	
118	0	1135.030	1	460	1105	2857	4205	801	-12.0	200	0	0	1136.005	1	
119	0	1139.558	0	460	1105	2857	4205	701	-13.5	200	0	0	1140.677	1	
120	0	1148.286	0	460	1105	2857	4205	601	-15.0	200	0	0	1149.413	1	
