Trial	CorrectionTrial?	StartTime	CenterReward?	F1	F2	F3	F4	HoldTime	Atten	Pitch	Side	Response	RespTime	Correct	
1	0	9.0788	0	730	2058	2857	4205	509	-14.0	149	1	0	17.6207	0	
2	1	23.5931	0	730	2058	2857	4205	509	-14.0	149	1	1	24.2087	1	
3	0	28.8624	0	460	1105	2857	4205	508	-12.0	200	0	0	30.0500	1	
4	0	35.3025	1	460	1105	2857	4205	503	-12.0	263	0	0	36.1294	1	
5	0	41.3073	0	460	1105	2857	4205	502	-12.0	459	0	0	42.1845	1	
6	0	47.1219	0	460	1105	2857	4205	504	-12.0	330	0	1	47.9057	0	
7	1	62.2920	0	460	1105	2857	4205	504	-12.0	330	0	0	63.2526	1	
8	0	68.0618	0	730	2058	2857	4205	511	-14.0	263	1	1	69.0128	1	
9	0	73.4470	0	730	2058	2857	4205	507	-14.0	149	1	1	74.1795	1	
10	0	79.3227	1	730	2058	2857	4205	510	-14.0	200	1	1	82.7180	1	
11	0	87.0670	0	730	2058	2857	4205	505	-14.0	459	1	0	89.8993	0	
12	1	96.0155	0	730	2058	2857	4205	505	-14.0	459	1	1	96.6910	1	
13	0	101.2648	0	579	1508	2857	4205	501	-12.0	200	-1	1	102.3415	-1	
14	0	107.7570	0	460	1105	2857	4205	509	-12.0	459	0	0	108.8538	1	
15	0	113.7273	0	460	1105	2857	4205	506	-12.0	330	0	0	114.9166	1	
16	0	120.6686	0	730	2058	2857	4205	503	-14.0	149	1	1	121.1331	1	
17	0	125.3354	0	460	1105	2857	4205	501	-12.0	263	0	1	126.1801	0	
18	1	134.3398	0	460	1105	2857	4205	501	-12.0	263	0	0	135.2875	1	
19	0	140.5826	0	579	1508	2857	4205	501	-12.0	200	-1	1	141.4486	-1	
20	0	145.6265	0	460	1105	2857	4205	502	-12.0	330	0	0	147.1221	1	
21	0	152.0555	0	730	2058	2857	4205	507	-14.0	200	1	1	152.9764	1	
22	0	156.3173	0	460	1105	2857	4205	511	-12.0	459	0	0	157.4594	1	
23	0	162.1293	0	730	2058	2857	4205	508	-14.0	263	1	1	162.8129	1	
24	0	166.0534	0	730	2058	2857	4205	505	-14.0	149	1	1	166.9130	1	
25	0	171.7057	0	460	1105	2857	4205	503	-12.0	330	0	0	173.2456	1	
26	0	179.0573	0	730	2058	2857	4205	509	-14.0	459	1	1	179.7414	1	
27	0	184.4451	0	730	2058	2857	4205	501	-14.0	263	1	1	185.5969	1	
28	0	196.7541	0	460	1105	2857	4205	507	-12.0	200	0	0	197.8846	1	
29	0	203.6264	0	460	1105	2857	4205	505	-12.0	149	0	1	204.1296	0	
30	1	213.9400	0	460	1105	2857	4205	505	-12.0	149	0	0	214.9464	1	
31	0	219.6890	0	730	2058	2857	4205	510	-14.0	263	1	0	220.8534	0	
32	1	227.6983	0	730	2058	2857	4205	510	-14.0	263	1	1	228.4851	1	
33	0	231.7425	0	460	1105	2857	4205	508	-12.0	149	0	0	233.7349	1	
34	0	238.6374	0	730	2058	2857	4205	506	-14.0	200	1	0	240.8803	0	
35	1	250.5848	0	730	2058	2857	4205	506	-14.0	200	1	1	251.2809	1	
36	0	254.9759	0	730	2058	2857	4205	511	-14.0	330	1	1	255.8307	1	
37	0	259.6007	0	460	1105	2857	4205	504	-12.0	459	0	0	260.5770	1	
38	0	264.8356	0	730	2058	2857	4205	507	-14.0	330	1	0	266.1758	0	
39	1	273.9093	1	730	2058	2857	4205	507	-14.0	330	1	1	274.6979	1	
40	0	277.5117	0	460	1105	2857	4205	504	-12.0	200	0	1	281.1335	0	
41	1	288.6401	0	460	1105	2857	4205	504	-12.0	200	0	0	290.4201	1	
42	0	295.4040	0	579	1508	2857	4205	501	-12.0	200	-1	0	297.1447	-1	
43	0	302.6828	0	460	1105	2857	4205	505	-12.0	459	0	0	304.3086	1	
44	0	309.0783	0	730	2058	2857	4205	502	-14.0	263	1	1	309.7941	1	
45	0	313.2137	0	460	1105	2857	4205	501	-12.0	149	0	0	314.7211	1	
46	0	319.9190	0	730	2058	2857	4205	508	-14.0	330	1	0	321.3188	0	
47	1	328.5072	1	730	2058	2857	4205	508	-14.0	330	1	1	329.3840	1	
48	0	332.4826	0	460	1105	2857	4205	511	-12.0	459	0	1	336.0702	0	
49	1	342.9992	0	460	1105	2857	4205	511	-12.0	459	0	0	343.6327	1	
50	0	347.7480	1	730	2058	2857	4205	503	-14.0	263	1	1	348.5321	1	
51	0	351.3855	0	460	1105	2857	4205	506	-12.0	200	0	1	354.7741	0	
52	1	360.3812	0	460	1105	2857	4205	506	-12.0	200	0	0	362.2162	1	
53	0	367.4810	0	579	1508	2857	4205	501	-12.0	200	-1	0	368.7356	-1	
54	0	374.9655	0	730	2058	2857	4205	503	-14.0	459	1	1	375.6543	1	
55	0	378.9265	0	730	2058	2857	4205	511	-14.0	263	1	1	379.7463	1	
56	0	384.0362	0	460	1105	2857	4205	502	-12.0	330	0	0	384.6907	1	
57	0	389.3661	0	460	1105	2857	4205	510	-12.0	149	0	0	391.4070	1	
58	0	396.5396	0	730	2058	2857	4205	504	-14.0	149	1	0	398.2652	0	
59	1	406.1505	0	730	2058	2857	4205	504	-14.0	149	1	1	407.0722	1	
60	0	411.0917	0	730	2058	2857	4205	501	-14.0	263	1	1	411.8311	1	
61	0	418.1466	0	460	1105	2857	4205	509	-12.0	459	0	0	419.7338	1	
62	0	424.1298	1	730	2058	2857	4205	505	-14.0	200	1	1	424.8636	1	
63	0	429.3500	0	730	2058	2857	4205	508	-14.0	330	1	1	432.5975	1	
64	0	435.6277	0	730	2058	2857	4205	505	-14.0	149	1	1	436.3680	1	
65	0	440.4702	0	579	1508	2857	4205	501	-12.0	200	-1	1	441.3325	-1	
66	0	446.6195	0	460	1105	2857	4205	501	-12.0	200	0	0	449.1476	1	
67	0	454.4725	0	460	1105	2857	4205	510	-12.0	459	0	0	455.7548	1	
68	0	461.2624	0	460	1105	2857	4205	506	-12.0	263	0	0	462.5295	1	
69	0	467.8839	0	730	2058	2857	4205	511	-14.0	263	1	1	468.6183	1	
70	0	472.4498	0	460	1105	2857	4205	504	-12.0	330	0	1	473.0286	0	
71	1	480.7440	0	460	1105	2857	4205	504	-12.0	330	0	0	481.5579	1	
72	0	486.5727	0	730	2058	2857	4205	503	-14.0	459	1	0	488.0023	0	
73	1	495.9538	1	730	2058	2857	4205	503	-14.0	459	1	1	496.4208	1	
74	0	499.5959	0	460	1105	2857	4205	502	-12.0	200	0	1	503.3755	0	
75	1	511.6340	0	460	1105	2857	4205	502	-12.0	200	0	0	513.3090	1	
76	0	517.5827	0	730	2058	2857	4205	507	-14.0	149	1	1	518.3727	1	
77	0	521.5987	0	460	1105	2857	4205	508	-12.0	263	0	0	523.6573	1	
78	0	527.9629	0	460	1105	2857	4205	505	-12.0	330	0	0	529.6093	1	
79	0	534.8553	0	460	1105	2857	4205	504	-12.0	459	0	0	536.4064	1	
80	0	541.3853	0	460	1105	2857	4205	506	-12.0	200	0	1	542.4288	0	
81	1	551.8740	0	460	1105	2857	4205	506	-12.0	200	0	0	552.4466	1	
82	0	557.4727	1	730	2058	2857	4205	510	-14.0	149	1	1	558.3491	1	
83	0	560.9728	0	730	2058	2857	4205	509	-14.0	263	1	1	564.5143	1	
84	0	567.7623	1	730	2058	2857	4205	507	-14.0	149	1	1	568.4885	1	
85	0	572.6849	0	730	2058	2857	4205	501	-14.0	330	1	1	575.8068	1	
86	0	579.4765	0	460	1105	2857	4205	503	-12.0	200	0	1	580.3733	0	
87	1	596.8346	0	460	1105	2857	4205	503	-12.0	200	0	1	598.9230	0	
88	1	606.4129	0	460	1105	2857	4205	503	-12.0	200	0	1	626.0451	0	
89	1	634.0438	1	460	1105	2857	4205	503	-12.0	200	0	1	634.7345	0	
90	1	643.2590	0	460	1105	2857	4205	503	-12.0	200	0	0	644.2494	1	
91	0	649.6095	0	730	2058	2857	4205	502	-14.0	459	1	1	650.4412	1	
92	0	653.1711	0	460	1105	2857	4205	507	-12.0	263	0	1	654.4110	0	
93	1	662.0723	0	460	1105	2857	4205	507	-12.0	263	0	0	662.9413	1	
94	0	685.2806	0	730	2058	2857	4205	505	-14.0	459	1	1	685.7155	1	
95	0	689.9295	0	579	1508	2857	4205	501	-12.0	200	-1	1	690.6724	-1	
96	0	693.9285	0	460	1105	2857	4205	502	-12.0	200	0	0	695.2855	1	
97	0	699.3693	0	730	2058	2857	4205	503	-14.0	149	1	1	699.9464	1	
98	0	703.2709	0	730	2058	2857	4205	508	-14.0	263	1	1	703.9943	1	
99	0	706.8223	0	460	1105	2857	4205	506	-12.0	330	0	0	707.6455	1	
100	0	712.2770	0	730	2058	2857	4205	504	-14.0	200	1	1	712.9724	1	
101	0	716.1246	0	460	1105	2857	4205	501	-12.0	149	0	1	717.0286	0	
102	1	728.4991	0	460	1105	2857	4205	501	-12.0	149	0	0	729.6523	1	
103	0	734.4099	0	579	1508	2857	4205	501	-12.0	200	-1	0	736.0910	-1	
104	0	740.0795	0	730	2058	2857	4205	504	-14.0	330	1	1	741.1545	1	
105	0	744.7114	0	730	2058	2857	4205	510	-14.0	459	1	1	745.4599	1	
106	0	749.9293	0	460	1105	2857	4205	502	-12.0	200	0	0	750.8863	1	
107	0	755.6307	0	730	2058	2857	4205	507	-14.0	263	1	1	756.5992	1	
108	0	760.5198	0	460	1105	2857	4205	508	-12.0	149	0	0	763.0671	1	
109	0	767.4239	0	730	2058	2857	4205	511	-14.0	263	1	0	768.9697	0	
110	1	775.8327	0	730	2058	2857	4205	511	-14.0	263	1	1	776.7224	1	
111	0	781.0897	0	460	1105	2857	4205	503	-12.0	149	0	0	782.7485	1	
112	0	787.6493	0	460	1105	2857	4205	506	-12.0	200	0	0	790.0350	1	
113	0	795.4556	0	460	1105	2857	4205	505	-12.0	459	0	0	798.7283	1	
114	0	804.1402	0	460	1105	2857	4205	501	-12.0	330	0	0	805.6656	1	
115	0	812.3398	0	460	1105	2857	4205	502	-12.0	263	0	0	814.6699	1	
116	0	819.9945	0	730	2058	2857	4205	505	-14.0	330	1	1	820.7435	1	
117	0	824.0370	0	460	1105	2857	4205	507	-12.0	200	0	1	825.2310	0	
118	1	833.9880	0	460	1105	2857	4205	507	-12.0	200	0	0	835.5008	1	
119	0	840.0680	0	730	2058	2857	4205	506	-14.0	149	1	1	840.9938	1	
120	0	843.8380	0	730	2058	2857	4205	510	-14.0	459	1	1	844.5742	1	
121	0	848.3002	0	730	2058	2857	4205	504	-14.0	200	1	1	849.0834	1	
122	0	855.0713	1	460	1105	2857	4205	503	-12.0	330	0	0	856.2948	1	
123	0	861.4194	0	730	2058	2857	4205	508	-14.0	149	1	0	865.2562	0	
124	1	873.1974	0	730	2058	2857	4205	508	-14.0	149	1	1	874.4944	1	
125	0	878.0952	0	460	1105	2857	4205	501	-12.0	263	0	0	879.7284	1	
126	0	884.6461	0	730	2058	2857	4205	511	-14.0	459	1	0	886.1014	0	
127	1	893.5566	0	730	2058	2857	4205	511	-14.0	459	1	1	894.9281	1	
128	0	897.7917	1	730	2058	2857	4205	508	-14.0	200	1	1	901.3117	1	
129	0	904.6145	0	460	1105	2857	4205	505	-12.0	149	0	0	906.3878	1	
130	0	912.9688	0	460	1105	2857	4205	511	-12.0	263	0	0	915.8802	1	
131	0	921.1224	0	579	1508	2857	4205	501	-12.0	200	-1	0	923.4734	-1	
132	0	929.1766	0	460	1105	2857	4205	507	-12.0	330	0	0	931.6779	1	
133	0	936.4737	1	730	2058	2857	4205	510	-14.0	200	1	1	937.0633	1	
134	0	940.4924	0	460	1105	2857	4205	501	-12.0	459	0	1	944.5131	0	
135	1	952.6311	0	460	1105	2857	4205	501	-12.0	459	0	0	955.0779	1	
136	0	973.8042	0	460	1105	2857	4205	506	-12.0	149	0	1	974.9080	0	
137	1	983.3937	0	460	1105	2857	4205	506	-12.0	149	0	1	984.0700	0	
138	1	992.0836	0	460	1105	2857	4205	506	-12.0	149	0	1	992.6200	0	
139	1	999.9727	0	460	1105	2857	4205	506	-12.0	149	0	1	1000.5933	0	
140	1	1007.9342	0	460	1105	2857	4205	506	-12.0	149	0	0	1008.7735	1	
141	0	1013.7135	0	730	2058	2857	4205	504	-14.0	263	1	1	1014.6637	1	
142	0	1017.1603	0	730	2058	2857	4205	502	-14.0	330	1	1	1018.1619	1	
143	0	1021.1963	0	460	1105	2857	4205	506	-12.0	330	0	0	1022.1323	1	
144	0	1026.4721	0	579	1508	2857	4205	501	-12.0	200	-1	0	1027.9977	-1	
145	0	1032.7351	0	730	2058	2857	4205	504	-14.0	459	1	1	1033.6783	1	
146	0	1036.7230	0	460	1105	2857	4205	509	-12.0	149	0	0	1037.6288	1	
147	0	1043.3981	0	730	2058	2857	4205	511	-14.0	263	1	1	1044.0156	1	
148	0	1048.5689	0	460	1105	2857	4205	507	-12.0	263	0	0	1049.9503	1	
149	0	1054.9026	0	460	1105	2857	4205	502	-12.0	200	0	0	1057.7117	1	
150	0	1064.0896	0	730	2058	2857	4205	503	-14.0	149	1	1	1064.7998	1	
151	0	1067.8245	0	730	2058	2857	4205	510	-14.0	330	1	1	1068.5173	1	
152	0	1072.1377	0	730	2058	2857	4205	508	-14.0	459	1	1	1072.7309	1	
153	0	1076.5573	1	730	2058	2857	4205	502	-14.0	263	1	1	1077.3900	1	
154	0	1083.3786	0	730	2058	2857	4205	507	-14.0	200	1	1	1087.8530	1	
155	0	1091.8508	0	730	2058	2857	4205	509	-14.0	149	1	0	1093.1587	0	
156	1	1099.6353	0	730	2058	2857	4205	509	-14.0	149	1	0	1102.0267	0	
157	1	1107.7600	0	730	2058	2857	4205	509	-14.0	149	1	1	1108.4322	1	
158	0	1121.2062	0	460	1105	2857	4205	510	-12.0	459	0	0	1122.1432	1	
159	0	1126.1771	0	460	1105	2857	4205	503	-12.0	330	0	1	1127.2823	0	
160	1	1136.4303	0	460	1105	2857	4205	503	-12.0	330	0	0	1138.0924	1	
161	0	1142.9579	0	460	1105	2857	4205	508	-12.0	459	0	1	1143.9273	0	
162	1	1160.2436	0	460	1105	2857	4205	508	-12.0	459	0	1	1160.7736	0	
163	1	1175.9593	0	460	1105	2857	4205	508	-12.0	459	0	1	1176.4977	0	
164	1	1192.0905	0	460	1105	2857	4205	508	-12.0	459	0	0	1194.0789	1	
165	0	1198.5142	0	730	2058	2857	4205	504	-14.0	330	1	1	1199.3929	1	
166	0	1202.6052	0	730	2058	2857	4205	505	-14.0	263	1	1	1203.3817	1	
167	0	1206.4175	0	460	1105	2857	4205	511	-12.0	200	0	0	1207.1066	1	
168	0	1236.1137	0	460	1105	2857	4205	501	-12.0	149	0	0	1237.1398	1	
169	0	1241.0949	0	460	1105	2857	4205	502	-12.0	263	0	1	1242.3219	0	
