Trial	CorrectionTrial?	StartTime	CenterReward?	F1	F2	F3	F4	HoldTime	Atten	Pitch	Side	Response	RespTime	Correct	
1	0	16.8961	0	460	1105	2857	4205	1001	-12.0	459	0	0	16.9344	1	
2	0	41.7970	0	460	1105	2857	4205	851	-12.0	263	0	0	41.8210	1	
3	0	46.0012	0	730	2058	2857	4205	801	-14.0	330	1	0	46.1223	0	
4	1	52.3627	0	730	2058	2857	4205	801	-14.0	330	1	0	52.4208	0	
5	1	74.0317	0	730	2058	2857	4205	801	-14.0	330	1	0	74.0813	0	
6	1	88.2204	0	730	2058	2857	4205	801	-14.0	330	1	0	88.3680	0	
7	1	98.5627	0	730	2058	2857	4205	801	-14.0	330	1	0	98.6605	0	
8	1	109.4077	0	730	2058	2857	4205	801	-14.0	330	1	0	109.5676	0	
9	1	116.3450	0	730	2058	2857	4205	801	-14.0	330	1	0	116.4805	0	
10	1	125.4540	0	730	2058	2857	4205	801	-14.0	330	1	0	125.5441	0	
11	1	137.4121	1	730	2058	2857	4205	801	-14.0	330	1	0	137.5265	0	
12	1	143.4799	0	730	2058	2857	4205	801	-14.0	330	1	0	143.6713	0	
13	1	150.6279	0	730	2058	2857	4205	801	-14.0	330	1	0	150.7379	0	
14	1	163.6101	0	730	2058	2857	4205	801	-14.0	330	1	0	163.6420	0	
15	1	176.2694	0	730	2058	2857	4205	801	-14.0	330	1	0	176.2389	0	
16	1	184.8472	0	730	2058	2857	4205	801	-14.0	330	1	0	184.8416	0	
17	1	191.2559	1	730	2058	2857	4205	801	-14.0	330	1	0	191.2937	0	
18	1	197.4600	0	730	2058	2857	4205	801	-14.0	330	1	0	197.4385	0	
19	1	203.9617	0	730	2058	2857	4205	801	-14.0	330	1	0	204.0442	0	
20	1	215.5188	0	730	2058	2857	4205	801	-14.0	330	1	0	215.5657	0	
21	1	223.2696	0	730	2058	2857	4205	801	-14.0	330	1	0	223.2467	0	
22	1	236.3142	1	730	2058	2857	4205	801	-14.0	330	1	0	236.4581	0	
23	1	252.3243	0	730	2058	2857	4205	801	-14.0	330	1	0	252.4346	0	
24	1	258.3792	0	730	2058	2857	4205	801	-14.0	330	1	0	258.4258	0	
25	1	267.4676	0	730	2058	2857	4205	801	-14.0	330	1	0	268.7267	0	
26	1	275.5900	0	730	2058	2857	4205	801	-14.0	330	1	1	276.4627	1	
27	0	280.1923	0	460	1105	2857	4205	651	-12.0	200	0	0	281.2946	1	
28	0	300.3989	0	460	1105	2857	4205	751	-12.0	149	0	0	300.4972	1	
29	0	316.4313	0	730	2058	2857	4205	601	-14.0	459	1	1	317.5122	1	
30	0	322.5768	0	730	2058	2857	4205	951	-14.0	330	1	1	323.3564	1	
31	0	329.6079	0	730	2058	2857	4205	901	-14.0	263	1	1	330.2267	1	
32	0	335.9089	0	730	2058	2857	4205	501	-14.0	200	1	0	336.9550	0	
33	1	344.9295	0	730	2058	2857	4205	501	-14.0	200	1	1	346.1832	1	
34	0	350.8100	0	460	1105	2857	4205	551	-12.0	149	0	0	351.6676	1	
35	0	357.3974	0	730	2058	2857	4205	501	-14.0	459	1	1	358.0589	1	
36	0	362.7674	0	730	2058	2857	4205	601	-14.0	263	1	1	363.6058	1	
37	0	368.8810	0	730	2058	2857	4205	751	-14.0	200	1	0	369.6869	0	
38	1	382.2516	0	730	2058	2857	4205	751	-14.0	200	1	0	383.2991	0	
39	1	391.9229	0	730	2058	2857	4205	751	-14.0	200	1	1	393.0966	1	
40	0	397.7804	0	730	2058	2857	4205	651	-14.0	330	1	1	398.5398	1	
41	0	403.8129	0	460	1105	2857	4205	851	-12.0	149	0	0	404.5606	1	
42	0	409.9037	0	460	1105	2857	4205	701	-12.0	459	0	0	411.0474	1	
43	0	418.1051	0	460	1105	2857	4205	801	-12.0	149	0	0	419.4516	1	
44	0	427.2206	0	460	1105	2857	4205	1001	-12.0	330	0	1	428.0586	0	
45	1	441.8694	0	460	1105	2857	4205	1001	-12.0	330	0	0	443.0695	1	
46	0	457.8745	0	460	1105	2857	4205	901	-12.0	263	0	0	458.6303	1	
47	0	467.0173	0	730	2058	2857	4205	951	-14.0	200	1	1	467.6133	1	
48	0	475.3385	0	730	2058	2857	4205	901	-14.0	459	1	1	476.1924	1	
49	0	481.0987	1	730	2058	2857	4205	651	-14.0	330	1	1	482.0591	1	
50	0	487.6065	0	460	1105	2857	4205	551	-12.0	200	0	0	488.3544	1	
51	0	497.3563	1	730	2058	2857	4205	1001	-14.0	149	1	1	499.5647	1	
52	0	503.9016	0	460	1105	2857	4205	751	-12.0	263	0	0	505.4183	1	
53	0	510.5371	0	730	2058	2857	4205	601	-14.0	459	1	0	512.3310	0	
54	1	518.2196	1	730	2058	2857	4205	601	-14.0	459	1	1	519.9394	1	
55	0	523.8276	0	730	2058	2857	4205	501	-14.0	200	1	1	526.6470	1	
56	0	530.8492	0	460	1105	2857	4205	801	-12.0	263	0	0	532.0146	1	
57	0	536.2828	0	460	1105	2857	4205	851	-12.0	330	0	0	538.1252	1	
58	0	543.9827	0	460	1105	2857	4205	701	-12.0	149	0	0	545.6421	1	
59	0	551.2763	0	730	2058	2857	4205	751	-14.0	200	1	1	552.0417	1	
60	0	555.6856	0	730	2058	2857	4205	501	-14.0	330	1	1	556.7692	1	
61	0	560.5674	0	730	2058	2857	4205	551	-14.0	149	1	1	561.6636	1	
62	0	566.8514	0	460	1105	2857	4205	651	-12.0	263	0	0	567.9096	1	
63	0	573.2445	0	460	1105	2857	4205	1001	-12.0	459	0	0	574.5295	1	
64	0	581.1461	0	460	1105	2857	4205	851	-12.0	330	0	0	582.5538	1	
65	0	590.9826	1	460	1105	2857	4205	901	-12.0	200	0	0	592.5929	1	
66	0	599.6238	0	730	2058	2857	4205	701	-14.0	459	1	1	601.4765	1	
67	0	606.1140	0	460	1105	2857	4205	951	-12.0	263	0	0	607.2399	1	
68	0	614.9203	0	730	2058	2857	4205	801	-14.0	149	1	0	615.0746	0	
69	1	622.4931	0	730	2058	2857	4205	801	-14.0	149	1	1	623.6037	1	
70	0	628.7344	1	730	2058	2857	4205	1001	-14.0	149	1	1	629.4836	1	
71	0	633.6349	0	460	1105	2857	4205	501	-12.0	459	0	1	636.8628	0	
72	1	645.1651	0	460	1105	2857	4205	501	-12.0	459	0	0	647.0711	1	
73	0	654.7997	0	730	2058	2857	4205	601	-14.0	330	1	1	656.0966	1	
74	0	662.7166	0	460	1105	2857	4205	751	-12.0	263	0	1	664.0487	0	
75	1	670.6273	0	460	1105	2857	4205	751	-12.0	263	0	0	672.2937	1	
76	0	678.1577	0	730	2058	2857	4205	851	-14.0	200	1	1	679.5701	1	
77	0	682.9880	0	460	1105	2857	4205	551	-12.0	200	0	0	684.0612	1	
78	0	690.8176	0	460	1105	2857	4205	801	-12.0	459	0	0	692.3535	1	
79	0	699.8919	0	460	1105	2857	4205	651	-12.0	149	0	0	701.8903	1	
80	0	707.9474	0	730	2058	2857	4205	701	-14.0	330	1	1	709.0047	1	
81	0	713.0789	0	730	2058	2857	4205	951	-14.0	263	1	1	713.6627	1	
82	0	718.7229	0	460	1105	2857	4205	701	-12.0	263	0	0	719.7898	1	
83	0	727.8673	0	460	1105	2857	4205	1001	-12.0	330	0	0	728.7604	1	
84	0	735.8827	0	730	2058	2857	4205	951	-14.0	459	1	1	736.6531	1	
85	0	740.2587	0	730	2058	2857	4205	751	-14.0	200	1	1	741.0951	1	
86	0	746.8636	0	460	1105	2857	4205	801	-12.0	149	0	0	747.6403	1	
87	0	753.8215	0	460	1105	2857	4205	601	-12.0	330	0	0	755.3678	1	
88	0	762.4937	0	730	2058	2857	4205	901	-14.0	263	1	1	763.2355	1	
89	0	768.6749	1	730	2058	2857	4205	501	-14.0	200	1	1	769.9748	1	
90	0	773.9236	0	460	1105	2857	4205	651	-12.0	149	0	0	775.6086	1	
91	0	780.9425	0	730	2058	2857	4205	851	-14.0	459	1	1	782.0753	1	
92	0	786.1138	0	460	1105	2857	4205	601	-12.0	459	0	0	787.2706	1	
93	0	792.7859	0	460	1105	2857	4205	801	-12.0	330	0	0	794.2414	1	
94	0	799.2091	0	460	1105	2857	4205	851	-12.0	149	0	0	800.6828	1	
95	0	807.8732	0	460	1105	2857	4205	951	-12.0	263	0	1	809.0563	0	
96	1	820.1014	0	460	1105	2857	4205	951	-12.0	263	0	0	822.5469	1	
97	0	828.4956	0	730	2058	2857	4205	751	-14.0	200	1	1	829.3165	1	
98	0	833.0568	0	730	2058	2857	4205	651	-14.0	263	1	1	834.0917	1	
99	0	841.4854	0	730	2058	2857	4205	1001	-14.0	330	1	1	841.9873	1	
100	0	848.2767	0	460	1105	2857	4205	551	-12.0	459	0	0	849.3525	1	
101	0	855.3473	0	730	2058	2857	4205	701	-14.0	149	1	1	856.3647	1	
102	0	863.3269	0	730	2058	2857	4205	901	-14.0	200	1	1	864.1924	1	
103	0	869.0465	0	730	2058	2857	4205	951	-14.0	149	1	1	869.8230	1	
104	0	875.8958	0	730	2058	2857	4205	1001	-14.0	263	1	1	876.7178	1	
105	0	881.6408	0	460	1105	2857	4205	801	-12.0	200	0	0	882.5572	1	
106	0	888.7181	0	460	1105	2857	4205	751	-12.0	459	0	0	890.3219	1	
107	0	899.2514	1	730	2058	2857	4205	701	-14.0	330	1	1	901.1692	1	
108	0	904.5484	0	460	1105	2857	4205	551	-12.0	263	0	1	906.7105	0	
109	1	913.6534	0	460	1105	2857	4205	551	-12.0	263	0	0	915.2241	1	
110	0	921.5099	0	730	2058	2857	4205	901	-14.0	149	1	1	922.9301	1	
111	0	929.2848	0	460	1105	2857	4205	851	-12.0	459	0	0	930.2448	1	
112	0	935.7921	1	730	2058	2857	4205	601	-14.0	330	1	1	937.2873	1	
113	0	941.0922	0	460	1105	2857	4205	651	-12.0	200	0	0	944.9371	1	
114	0	951.8979	0	730	2058	2857	4205	551	-14.0	200	1	1	953.2865	1	
115	0	956.6891	0	460	1105	2857	4205	851	-12.0	263	0	0	957.9258	1	
116	0	963.1636	0	730	2058	2857	4205	501	-14.0	330	1	1	964.3511	1	
117	0	967.3214	0	460	1105	2857	4205	751	-12.0	149	0	0	968.5019	1	
118	0	974.0911	0	730	2058	2857	4205	801	-14.0	459	1	1	975.1298	1	
119	0	980.6604	0	730	2058	2857	4205	901	-14.0	263	1	1	981.5884	1	
120	0	988.9971	0	460	1105	2857	4205	1001	-12.0	200	0	0	989.8081	1	
121	0	995.2878	0	730	2058	2857	4205	951	-14.0	330	1	0	996.4773	0	
122	1	1002.5337	0	730	2058	2857	4205	951	-14.0	330	1	1	1003.1206	1	
123	0	1010.1734	0	460	1105	2857	4205	651	-12.0	149	0	0	1011.5169	1	
124	0	1016.7153	0	460	1105	2857	4205	601	-12.0	459	0	0	1018.0351	1	
125	0	1023.0609	0	460	1105	2857	4205	551	-12.0	149	0	0	1025.0301	1	
126	0	1030.1230	0	730	2058	2857	4205	601	-14.0	459	1	1	1031.0107	1	
127	0	1034.6849	0	730	2058	2857	4205	801	-14.0	200	1	1	1035.4577	1	
128	0	1042.0636	1	730	2058	2857	4205	701	-14.0	263	1	1	1042.8302	1	
129	0	1048.3608	1	460	1105	2857	4205	651	-12.0	330	0	1	1053.7696	0	
130	1	1060.8038	0	460	1105	2857	4205	651	-12.0	330	0	0	1062.8123	1	
131	0	1068.5915	0	460	1105	2857	4205	851	-12.0	330	0	0	1069.9217	1	
132	0	1075.6568	0	460	1105	2857	4205	901	-12.0	459	0	0	1076.9365	1	
133	0	1081.9763	0	730	2058	2857	4205	501	-14.0	200	1	1	1083.0592	1	
134	0	1086.9521	1	460	1105	2857	4205	1001	-12.0	263	0	1	1089.5351	0	
135	1	1114.4821	0	460	1105	2857	4205	1001	-12.0	263	0	0	1115.8801	1	
136	0	1120.5898	0	730	2058	2857	4205	751	-14.0	149	1	1	1121.6567	1	
137	0	1126.0771	0	730	2058	2857	4205	751	-14.0	200	1	1	1127.3283	1	
