Trial	CorrectionTrial?	StartTime	CenterReward?	F1	F2	F3	F4	HoldTime	Atten	Pitch	Side	Response	RespTime	Correct	
1	0	7.4838	0	460	1105	2857	4205	951	-10.0	459	0	1	8.5525	0	
2	1	16.8043	0	460	1105	2857	4205	951	-10.0	459	0	0	18.0595	1	
3	0	26.4942	0	460	1105	2857	4205	701	-10.0	200	0	1	27.2746	0	
4	1	40.5749	0	460	1105	2857	4205	701	-10.0	200	0	0	41.6240	1	
5	0	51.2899	0	460	1105	2857	4205	801	-10.0	263	0	1	52.0111	0	
6	1	62.2200	0	460	1105	2857	4205	801	-10.0	263	0	0	63.1327	1	
7	0	73.4330	0	460	1105	2857	4205	851	-10.0	149	0	1	74.2171	0	
8	1	81.1309	0	460	1105	2857	4205	851	-10.0	149	0	0	82.1876	1	
9	0	91.6207	0	460	1105	2857	4205	1001	-10.0	330	0	0	92.5315	1	
10	0	104.4430	0	730	2058	2857	4205	501	-10.0	149	1	1	105.2496	1	
11	0	108.3468	0	730	2058	2857	4205	901	-10.0	459	1	1	109.1388	1	
12	0	115.2115	0	730	2058	2857	4205	551	-10.0	330	1	1	115.9832	1	
13	0	121.1316	1	730	2058	2857	4205	651	-10.0	200	1	1	121.9616	1	
14	0	127.7828	1	730	2058	2857	4205	751	-10.0	263	1	1	130.6382	1	
15	0	135.7743	0	460	1105	2857	4205	951	-10.0	330	0	0	137.0504	1	
16	0	146.8973	0	730	2058	2857	4205	801	-10.0	200	1	1	147.8845	1	
17	0	151.8877	0	730	2058	2857	4205	901	-10.0	149	1	1	152.5565	1	
18	0	158.0408	0	730	2058	2857	4205	601	-10.0	459	1	1	158.6234	1	
19	0	163.6031	0	460	1105	2857	4205	1001	-10.0	263	0	0	165.4344	1	
20	0	173.7871	0	730	2058	2857	4205	651	-10.0	459	1	1	174.3961	1	
21	0	179.0785	0	460	1105	2857	4205	851	-10.0	330	0	0	180.2955	1	
22	0	188.1094	0	730	2058	2857	4205	701	-10.0	200	1	1	188.8383	1	
23	0	194.0314	0	460	1105	2857	4205	501	-10.0	149	0	1	195.4622	0	
24	1	207.1549	0	460	1105	2857	4205	501	-10.0	149	0	0	208.6698	1	
25	0	217.6073	0	460	1105	2857	4205	551	-10.0	263	0	1	218.2842	0	
26	1	230.3617	0	460	1105	2857	4205	551	-10.0	263	0	0	231.8087	1	
27	0	240.9912	0	730	2058	2857	4205	501	-10.0	200	1	1	241.9036	1	
28	0	246.0198	0	730	2058	2857	4205	601	-10.0	330	1	1	247.0299	1	
29	0	253.0509	0	460	1105	2857	4205	851	-10.0	149	0	1	253.9915	0	
30	1	262.7107	0	460	1105	2857	4205	851	-10.0	149	0	0	263.7365	1	
31	0	272.5052	0	460	1105	2857	4205	551	-10.0	263	0	1	273.4231	0	
32	1	280.8741	0	460	1105	2857	4205	551	-10.0	263	0	0	281.8257	1	
33	0	293.0050	0	730	2058	2857	4205	751	-10.0	459	1	1	293.8325	1	
34	0	298.5860	0	730	2058	2857	4205	701	-10.0	459	1	1	299.6629	1	
35	0	304.5011	0	460	1105	2857	4205	651	-10.0	149	0	0	306.9573	1	
36	0	315.2248	0	460	1105	2857	4205	801	-10.0	263	0	0	316.3280	1	
37	0	327.7577	0	730	2058	2857	4205	951	-10.0	200	1	1	328.3189	1	
38	0	333.0250	0	460	1105	2857	4205	1001	-10.0	330	0	0	334.2081	1	
39	0	349.3207	0	730	2058	2857	4205	751	-10.0	149	1	1	350.2538	1	
40	0	355.5485	0	730	2058	2857	4205	651	-10.0	459	1	1	356.1972	1	
41	0	362.6579	0	460	1105	2857	4205	501	-10.0	200	0	0	364.3858	1	
42	0	375.7981	0	460	1105	2857	4205	701	-10.0	263	0	0	377.2599	1	
43	0	388.6293	0	730	2058	2857	4205	801	-10.0	330	1	1	389.3340	1	
44	0	394.2031	0	730	2058	2857	4205	951	-10.0	263	1	1	395.2962	1	
45	0	401.3576	0	460	1105	2857	4205	601	-10.0	149	0	0	403.2798	1	
46	0	411.0111	0	460	1105	2857	4205	851	-10.0	459	0	0	412.1022	1	
47	0	421.8520	0	460	1105	2857	4205	551	-10.0	200	0	1	423.2180	0	
48	1	432.0519	0	460	1105	2857	4205	551	-10.0	200	0	0	433.6848	1	
49	0	445.0825	0	730	2058	2857	4205	1001	-10.0	330	1	1	446.2249	1	
50	0	450.3962	0	460	1105	2857	4205	901	-10.0	459	0	1	451.9041	0	
51	1	462.3516	1	460	1105	2857	4205	901	-10.0	459	0	0	465.3808	1	
52	0	473.8048	0	730	2058	2857	4205	701	-10.0	200	1	1	475.2570	1	
53	0	479.2544	0	730	2058	2857	4205	601	-10.0	149	1	1	480.3224	1	
54	0	485.6164	0	730	2058	2857	4205	951	-10.0	263	1	1	486.8443	1	
55	0	491.7663	0	460	1105	2857	4205	651	-10.0	330	0	0	493.7293	1	
56	0	504.1487	0	460	1105	2857	4205	551	-10.0	149	0	0	506.9436	1	
57	0	516.6396	0	460	1105	2857	4205	851	-10.0	330	0	1	517.3910	0	
58	1	529.3614	0	460	1105	2857	4205	851	-10.0	330	0	0	531.0687	1	
59	0	540.5943	0	730	2058	2857	4205	501	-10.0	200	1	1	541.3869	1	
60	0	546.4231	0	730	2058	2857	4205	751	-10.0	263	1	1	547.3181	1	
61	0	553.0089	0	460	1105	2857	4205	1001	-10.0	459	0	1	554.3610	0	
62	1	561.9043	0	460	1105	2857	4205	1001	-10.0	459	0	0	563.0606	1	
63	0	570.6434	0	730	2058	2857	4205	651	-10.0	200	1	1	572.4328	1	
64	0	576.9962	0	730	2058	2857	4205	851	-10.0	330	1	1	577.9864	1	
65	0	583.3210	0	460	1105	2857	4205	701	-10.0	263	0	0	584.7997	1	
66	0	594.2783	0	460	1105	2857	4205	601	-10.0	459	0	1	596.1350	0	
67	1	606.8575	0	460	1105	2857	4205	601	-10.0	459	0	0	608.3104	1	
68	0	616.0057	0	460	1105	2857	4205	1001	-10.0	149	0	0	617.3546	1	
69	0	625.6765	0	730	2058	2857	4205	501	-10.0	263	1	1	627.0548	1	
70	0	631.7646	0	730	2058	2857	4205	901	-10.0	200	1	1	632.6339	1	
71	0	640.9707	0	460	1105	2857	4205	751	-10.0	459	0	1	642.6075	0	
72	1	651.8345	0	460	1105	2857	4205	751	-10.0	459	0	0	653.2165	1	
73	0	660.3016	1	460	1105	2857	4205	551	-10.0	149	0	0	663.1895	1	
74	0	678.9145	0	730	2058	2857	4205	951	-10.0	330	1	1	680.1698	1	
75	0	684.4399	0	460	1105	2857	4205	951	-10.0	149	0	1	685.5342	0	
76	1	692.6867	0	460	1105	2857	4205	951	-10.0	149	0	0	693.9705	1	
77	0	697.5342	0	460	1105	2857	4205	851	-10.0	200	0	0	698.8287	1	
78	0	706.6825	0	730	2058	2857	4205	901	-10.0	330	1	1	707.5597	1	
79	0	713.2187	0	730	2058	2857	4205	1001	-10.0	459	1	1	713.7663	1	
80	0	720.1564	0	460	1105	2857	4205	551	-10.0	263	0	0	721.9646	1	
81	0	728.6787	0	460	1105	2857	4205	501	-10.0	330	0	1	730.1531	0	
82	1	738.6984	0	460	1105	2857	4205	501	-10.0	330	0	0	739.9329	1	
83	0	745.9328	0	730	2058	2857	4205	701	-10.0	200	1	1	747.6299	1	
84	0	751.6493	0	460	1105	2857	4205	751	-10.0	459	0	0	753.1126	1	
85	0	760.4876	0	730	2058	2857	4205	801	-10.0	149	1	1	761.5674	1	
86	0	765.1216	1	730	2058	2857	4205	651	-10.0	263	1	1	767.3813	1	
87	0	772.5858	0	730	2058	2857	4205	501	-10.0	330	1	1	773.7444	1	
88	0	779.0399	0	460	1105	2857	4205	951	-10.0	200	0	0	781.6285	1	
89	0	787.7140	0	460	1105	2857	4205	851	-10.0	459	0	0	789.1145	1	
90	0	794.8833	0	460	1105	2857	4205	801	-10.0	149	0	0	796.5697	1	
91	0	803.6266	0	460	1105	2857	4205	601	-10.0	263	0	1	804.5182	0	
92	1	819.1807	0	460	1105	2857	4205	601	-10.0	263	0	1	820.2543	0	
93	1	845.0141	0	460	1105	2857	4205	601	-10.0	263	0	0	846.4524	1	
94	0	851.2396	0	730	2058	2857	4205	701	-10.0	263	1	1	852.7965	1	
95	0	857.4770	0	730	2058	2857	4205	551	-10.0	459	1	1	858.7529	1	
96	0	873.4275	0	730	2058	2857	4205	651	-10.0	330	1	0	875.1809	0	
97	1	904.5087	0	730	2058	2857	4205	651	-10.0	330	1	1	906.0130	1	
98	0	912.3600	1	460	1105	2857	4205	901	-10.0	149	0	1	914.4705	0	
99	1	923.9197	0	460	1105	2857	4205	901	-10.0	149	0	1	936.9927	0	
100	1	971.0526	0	460	1105	2857	4205	901	-10.0	149	0	0	975.7110	1	
101	0	981.6961	0	730	2058	2857	4205	751	-10.0	200	1	0	983.5053	0	
102	1	1022.2710	0	730	2058	2857	4205	751	-10.0	200	1	1	1024.1393	1	
103	0	1064.0549	0	730	2058	2857	4205	951	-10.0	459	1	1	1064.9200	1	
104	0	1102.2388	0	730	2058	2857	4205	701	-10.0	330	1	0	1103.1880	0	
105	1	1126.7709	0	730	2058	2857	4205	701	-10.0	330	1	-1	-1.0000	0	
106	0	1172.1925	0	730	2058	2857	4205	601	-10.0	149	1	-1	-1.0000	0	
