Trial	CorrectionTrial?	StartTime	CenterReward?	F1	F2	F3	F4	HoldTime	Atten	Pitch	Side	Response	RespTime	Correct	
1	0	23.4931	0	460	1105	2857	4205	651	-12.0	149	0	0	26.9831	1	
2	0	32.4802	0	730	2058	2857	4205	851	-14.0	459	1	1	33.8665	1	
3	0	39.6184	0	730	2058	2857	4205	551	-14.0	263	1	1	40.5006	1	
4	0	49.8933	0	730	2058	2857	4205	951	-14.0	200	1	1	50.8032	1	
5	0	57.6783	0	460	1105	2857	4205	501	-12.0	330	0	1	58.7249	0	
6	1	67.4690	0	460	1105	2857	4205	501	-12.0	330	0	0	68.9352	1	
7	0	73.6573	0	460	1105	2857	4205	701	-12.0	149	0	0	74.8553	1	
8	0	81.0483	0	460	1105	2857	4205	1001	-12.0	459	0	0	81.9523	1	
9	0	90.9712	0	730	2058	2857	4205	601	-14.0	330	1	1	92.1002	1	
10	0	96.6331	0	730	2058	2857	4205	901	-14.0	200	1	1	97.9053	1	
11	0	103.6556	0	460	1105	2857	4205	751	-12.0	263	0	0	104.9267	1	
12	0	110.2348	0	460	1105	2857	4205	951	-12.0	330	0	1	111.3174	0	
13	1	120.1202	0	460	1105	2857	4205	951	-12.0	330	0	0	121.1265	1	
14	0	129.4359	1	460	1105	2857	4205	751	-12.0	263	0	0	132.1171	1	
15	0	142.2678	0	730	2058	2857	4205	601	-14.0	459	1	1	143.9696	1	
16	0	148.0174	0	730	2058	2857	4205	701	-14.0	149	1	1	149.2000	1	
17	0	154.3642	0	460	1105	2857	4205	1001	-12.0	200	0	0	155.4179	1	
18	0	164.3478	0	730	2058	2857	4205	851	-14.0	200	1	1	165.3412	1	
19	0	170.2683	0	460	1105	2857	4205	551	-12.0	330	0	0	171.4842	1	
20	0	176.5158	0	730	2058	2857	4205	801	-14.0	149	1	1	177.6639	1	
21	0	181.5617	0	730	2058	2857	4205	501	-14.0	263	1	1	182.6960	1	
22	0	188.9364	0	460	1105	2857	4205	651	-12.0	459	0	0	190.1465	1	
23	0	195.5623	0	460	1105	2857	4205	701	-12.0	330	0	0	196.7199	1	
24	0	202.4399	0	730	2058	2857	4205	1001	-14.0	200	1	1	203.3486	1	
25	0	209.6165	0	460	1105	2857	4205	851	-12.0	263	0	0	210.7098	1	
26	0	217.0818	0	730	2058	2857	4205	501	-14.0	459	1	1	217.9341	1	
27	0	224.1510	0	730	2058	2857	4205	801	-14.0	149	1	1	224.9101	1	
28	0	231.1212	1	460	1105	2857	4205	601	-12.0	263	0	0	232.5707	1	
29	0	238.1365	0	460	1105	2857	4205	901	-12.0	330	0	0	239.2799	1	
30	0	244.7899	0	730	2058	2857	4205	651	-14.0	149	1	1	246.2984	1	
31	0	251.1043	1	460	1105	2857	4205	551	-12.0	200	0	0	252.7950	1	
32	0	257.3189	0	730	2058	2857	4205	751	-14.0	459	1	0	262.0440	0	
33	1	268.1500	0	730	2058	2857	4205	751	-14.0	459	1	1	269.0242	1	
34	0	274.1789	0	730	2058	2857	4205	701	-14.0	330	1	1	274.9883	1	
35	0	281.1655	0	730	2058	2857	4205	601	-14.0	459	1	1	282.1680	1	
36	0	288.3453	0	460	1105	2857	4205	651	-12.0	149	0	1	289.3552	0	
37	1	298.1865	0	460	1105	2857	4205	651	-12.0	149	0	0	299.8693	1	
38	0	304.5185	0	460	1105	2857	4205	801	-12.0	263	0	0	305.7131	1	
39	0	311.7770	0	460	1105	2857	4205	901	-12.0	200	0	0	312.9400	1	
40	0	318.9389	0	730	2058	2857	4205	551	-14.0	459	1	1	319.9829	1	
41	0	325.9087	0	460	1105	2857	4205	851	-12.0	263	0	0	326.7899	1	
42	0	331.7847	0	730	2058	2857	4205	951	-14.0	149	1	1	332.9571	1	
43	0	338.7519	0	730	2058	2857	4205	501	-14.0	200	1	1	339.7067	1	
44	0	346.3646	0	460	1105	2857	4205	751	-12.0	330	0	0	347.4395	1	
45	0	354.3725	0	460	1105	2857	4205	651	-12.0	200	0	0	355.4490	1	
46	0	361.6124	0	460	1105	2857	4205	751	-12.0	459	0	0	363.3896	1	
47	0	368.8538	0	460	1105	2857	4205	501	-12.0	149	0	0	370.5754	1	
48	0	379.0707	0	730	2058	2857	4205	851	-14.0	263	1	1	380.1470	1	
49	0	385.6998	1	460	1105	2857	4205	701	-12.0	330	0	0	387.0715	1	
50	0	392.7535	0	460	1105	2857	4205	601	-12.0	330	0	0	394.2077	1	
51	0	398.7539	0	730	2058	2857	4205	901	-14.0	459	1	1	399.6186	1	
52	0	405.8309	0	730	2058	2857	4205	1001	-14.0	263	1	1	406.5180	1	
53	0	413.9652	0	730	2058	2857	4205	951	-14.0	149	1	1	414.5917	1	
54	0	420.0631	0	730	2058	2857	4205	551	-14.0	200	1	1	420.9361	1	
55	0	427.6666	0	730	2058	2857	4205	601	-14.0	149	1	1	428.6330	1	
56	0	433.1377	0	730	2058	2857	4205	751	-14.0	459	1	1	434.1041	1	
57	0	439.4479	0	460	1105	2857	4205	1001	-12.0	330	0	0	440.5845	1	
58	0	450.7192	0	460	1105	2857	4205	851	-12.0	263	0	0	452.3167	1	
59	0	456.9291	0	460	1105	2857	4205	701	-12.0	200	0	1	458.4293	0	
60	1	470.8082	0	460	1105	2857	4205	701	-12.0	200	0	0	472.2651	1	
61	0	476.6244	0	460	1105	2857	4205	501	-12.0	459	0	0	478.1407	1	
62	0	482.5437	0	730	2058	2857	4205	801	-14.0	200	1	1	483.5385	1	
63	0	488.4127	0	460	1105	2857	4205	651	-12.0	263	0	0	489.4826	1	
64	0	494.5053	0	730	2058	2857	4205	951	-14.0	149	1	1	495.3188	1	
65	0	509.0827	0	730	2058	2857	4205	901	-14.0	330	1	1	509.7130	1	
66	0	515.4213	0	460	1105	2857	4205	751	-12.0	200	0	0	516.4810	1	
67	0	526.2040	0	730	2058	2857	4205	1001	-14.0	263	1	1	526.7028	1	
68	0	532.8190	0	460	1105	2857	4205	651	-12.0	149	0	0	534.0046	1	
69	0	539.9665	0	730	2058	2857	4205	701	-14.0	330	1	1	540.9454	1	
70	0	546.8909	0	730	2058	2857	4205	901	-14.0	459	1	1	547.6468	1	
71	0	552.5508	0	730	2058	2857	4205	551	-14.0	200	1	1	553.4364	1	
72	0	558.4424	1	460	1105	2857	4205	801	-12.0	459	0	0	559.3494	1	
73	0	564.4489	0	460	1105	2857	4205	851	-12.0	263	0	0	565.7566	1	
74	0	570.7350	0	460	1105	2857	4205	601	-12.0	330	0	0	572.1855	1	
75	0	582.1940	0	730	2058	2857	4205	951	-14.0	149	1	1	583.3264	1	
76	0	588.7482	0	730	2058	2857	4205	501	-14.0	200	1	0	590.0372	0	
77	1	595.7963	0	730	2058	2857	4205	501	-14.0	200	1	1	596.4897	1	
78	0	603.7808	0	730	2058	2857	4205	1001	-14.0	459	1	1	604.5492	1	
79	0	610.9220	0	730	2058	2857	4205	751	-14.0	330	1	1	611.6927	1	
80	0	618.1354	0	460	1105	2857	4205	851	-12.0	149	0	0	618.9345	1	
81	0	623.3971	0	730	2058	2857	4205	701	-14.0	263	1	1	624.3464	1	
82	0	629.9900	0	730	2058	2857	4205	801	-14.0	330	1	1	630.8989	1	
83	0	638.3876	0	460	1105	2857	4205	601	-12.0	200	0	0	639.5630	1	
84	0	646.0037	0	460	1105	2857	4205	951	-12.0	149	0	0	647.4235	1	
85	0	653.2179	0	460	1105	2857	4205	551	-12.0	459	0	0	654.4845	1	
86	0	659.9396	0	460	1105	2857	4205	651	-12.0	263	0	0	661.2484	1	
87	0	667.6493	0	460	1105	2857	4205	701	-12.0	459	0	0	669.0919	1	
88	0	674.5812	0	460	1105	2857	4205	601	-12.0	149	0	0	675.9932	1	
89	0	682.2663	0	460	1105	2857	4205	801	-12.0	200	0	0	683.7494	1	
90	0	690.9684	0	460	1105	2857	4205	951	-12.0	330	0	0	692.1830	1	
91	0	697.1512	0	460	1105	2857	4205	651	-12.0	263	0	1	698.3229	0	
92	1	704.0124	0	460	1105	2857	4205	651	-12.0	263	0	0	706.1285	1	
93	0	712.3558	0	730	2058	2857	4205	1001	-14.0	330	1	1	712.9963	1	
94	0	718.7325	0	730	2058	2857	4205	851	-14.0	149	1	1	719.6173	1	
95	0	726.9799	0	730	2058	2857	4205	751	-14.0	459	1	1	727.6305	1	
96	0	733.4554	1	730	2058	2857	4205	501	-14.0	200	1	1	734.4047	1	
97	0	740.0354	0	730	2058	2857	4205	901	-14.0	263	1	1	740.8895	1	
98	0	747.7358	0	730	2058	2857	4205	701	-14.0	263	1	1	748.7386	1	
99	0	755.1634	0	730	2058	2857	4205	1001	-14.0	330	1	1	756.2964	1	
100	0	762.6921	0	460	1105	2857	4205	501	-12.0	149	0	0	763.8725	1	
101	0	768.5968	1	460	1105	2857	4205	551	-12.0	200	0	0	770.3589	1	
102	0	775.2591	1	460	1105	2857	4205	601	-12.0	459	0	0	779.5382	1	
103	0	785.3444	0	460	1105	2857	4205	901	-12.0	263	0	0	787.6357	1	
104	0	793.1166	1	730	2058	2857	4205	801	-14.0	459	1	1	794.6151	1	
105	0	804.0784	0	730	2058	2857	4205	851	-14.0	330	1	1	806.9384	1	
106	0	811.0019	0	730	2058	2857	4205	651	-14.0	149	1	1	813.9274	1	
107	0	817.9743	1	460	1105	2857	4205	951	-12.0	200	0	0	819.8441	1	
108	0	826.5462	0	460	1105	2857	4205	651	-12.0	330	0	0	830.9167	1	
109	0	835.5286	0	460	1105	2857	4205	501	-12.0	263	0	0	838.1151	1	
110	0	844.0708	0	730	2058	2857	4205	801	-14.0	459	1	1	845.2967	1	
111	0	852.3066	0	460	1105	2857	4205	951	-12.0	200	0	0	853.3639	1	
112	0	858.6559	0	730	2058	2857	4205	851	-14.0	149	1	1	859.8338	1	
113	0	864.6743	1	460	1105	2857	4205	551	-12.0	200	0	0	866.1981	1	
114	0	871.1615	0	460	1105	2857	4205	701	-12.0	149	0	0	874.2414	1	
115	0	880.2264	0	730	2058	2857	4205	901	-14.0	330	1	0	881.8349	0	
116	1	889.7117	0	730	2058	2857	4205	901	-14.0	330	1	1	891.2064	1	
117	0	896.1516	0	730	2058	2857	4205	601	-14.0	459	1	1	897.1728	1	
118	0	903.3780	0	730	2058	2857	4205	1001	-14.0	263	1	1	904.4332	1	
119	0	910.5909	0	730	2058	2857	4205	901	-14.0	200	1	1	911.4481	1	
120	0	916.7074	0	730	2058	2857	4205	651	-14.0	330	1	1	917.7862	1	
121	0	923.7311	1	730	2058	2857	4205	951	-14.0	263	1	1	924.7782	1	
122	0	929.9990	0	730	2058	2857	4205	501	-14.0	459	1	1	931.4796	1	
123	0	936.9344	1	460	1105	2857	4205	701	-12.0	149	0	0	938.6476	1	
124	0	943.3776	0	460	1105	2857	4205	551	-12.0	263	0	0	947.9919	1	
125	0	952.3766	1	460	1105	2857	4205	601	-12.0	459	0	0	956.4059	1	
126	0	960.8443	0	460	1105	2857	4205	801	-12.0	149	0	0	963.2298	1	
127	0	968.1621	0	460	1105	2857	4205	1001	-12.0	330	0	0	970.4261	1	
128	0	976.0723	0	730	2058	2857	4205	851	-14.0	200	1	1	977.0698	1	
129	0	982.2799	0	460	1105	2857	4205	1001	-12.0	149	0	0	983.2270	1	
130	0	988.3404	0	730	2058	2857	4205	951	-14.0	200	1	1	989.4972	1	
131	0	995.3904	0	460	1105	2857	4205	701	-12.0	263	0	0	996.9666	1	
132	0	1001.4370	1	460	1105	2857	4205	501	-12.0	330	0	0	1003.3658	1	
133	0	1007.8769	1	730	2058	2857	4205	801	-14.0	459	1	1	1009.5411	1	
134	0	1013.9981	0	730	2058	2857	4205	901	-14.0	149	1	1	1015.2278	1	
135	0	1020.6124	0	730	2058	2857	4205	601	-14.0	200	1	1	1021.7903	1	
136	0	1026.1108	0	460	1105	2857	4205	551	-12.0	330	0	1	1030.3563	0	
137	1	1037.5620	1	460	1105	2857	4205	551	-12.0	330	0	0	1039.4643	1	
138	0	1044.4452	0	730	2058	2857	4205	751	-14.0	263	1	1	1048.6591	1	
139	0	1052.7279	0	460	1105	2857	4205	851	-12.0	459	0	0	1055.0066	1	
140	0	1059.8258	0	730	2058	2857	4205	651	-14.0	200	1	0	1061.6515	0	
141	1	1071.3503	0	730	2058	2857	4205	651	-14.0	200	1	1	1072.5207	1	
142	0	1077.6983	0	730	2058	2857	4205	751	-14.0	330	1	1	1078.5618	1	
143	0	1083.0407	0	730	2058	2857	4205	1001	-14.0	263	1	1	1083.9036	1	
144	0	1101.0399	0	460	1105	2857	4205	501	-12.0	459	0	1	1102.0560	0	
