Trial	CorrectionTrial?	StartTime	CenterReward?	F1	F2	F3	F4	HoldTime	Atten	Pitch	Side	Response	RespTime	Correct	
1	0	3.144	0	730	2058	2857	4205	551	-19.5	263	1	1	4.358	1	
2	0	10.558	0	460	1105	2857	4205	801	-14.5	409	0	1	11.448	0	
3	1	20.318	0	460	1105	2857	4205	801	-14.5	409	0	1	21.961	0	
4	1	28.751	0	460	1105	2857	4205	801	-14.5	409	0	0	29.980	1	
5	0	121.760	1	730	2058	2857	4205	701	-15.0	149	1	0	125.419	0	
6	1	132.338	0	730	2058	2857	4205	701	-15.0	149	1	0	157.330	0	
7	1	166.390	0	730	2058	2857	4205	701	-15.0	149	1	0	168.905	0	
8	1	178.014	0	730	2058	2857	4205	701	-15.0	149	1	0	189.603	0	
9	1	202.072	0	730	2058	2857	4205	701	-15.0	149	1	1	205.122	1	
10	0	211.393	0	730	2058	2857	4205	851	-21.0	330	1	1	212.291	1	
11	0	217.158	1	460	1105	2857	4205	751	-16.0	499	0	1	218.782	0	
12	1	232.994	1	460	1105	2857	4205	751	-16.0	499	0	0	241.771	1	
13	0	252.052	0	730	2058	2857	4205	951	-19.5	200	1	1	253.230	1	
14	0	261.196	0	730	2058	2857	4205	901	-21.0	499	1	1	262.500	1	
15	0	268.273	0	460	1105	2857	4205	601	-14.5	263	0	0	269.793	1	
16	0	280.569	0	460	1105	2857	4205	1001	-16.0	149	0	1	282.025	0	
17	1	292.263	0	460	1105	2857	4205	1001	-16.0	149	0	0	294.188	1	
18	0	307.476	0	460	1105	2857	4205	501	-14.5	409	0	1	308.590	0	
19	1	322.582	0	460	1105	2857	4205	501	-14.5	409	0	0	324.935	1	
20	0	334.087	0	460	1105	2857	4205	1001	-13.0	200	0	0	336.093	1	
21	0	347.169	0	460	1105	2857	4205	751	-19.0	330	0	1	348.041	0	
22	1	359.321	0	460	1105	2857	4205	751	-19.0	330	0	0	360.640	1	
23	0	370.134	0	730	2058	2857	4205	651	-21.0	149	1	1	371.215	1	
24	0	376.662	0	730	2058	2857	4205	801	-16.5	330	1	1	377.738	1	
25	0	381.828	0	730	2058	2857	4205	601	-18.0	499	1	1	383.232	1	
26	0	386.844	0	730	2058	2857	4205	701	-19.5	409	1	1	388.240	1	
27	0	391.344	0	460	1105	2857	4205	501	-13.0	200	0	1	393.499	0	
28	1	400.691	0	460	1105	2857	4205	501	-13.0	200	0	0	402.323	1	
29	0	409.183	0	460	1105	2857	4205	901	-14.5	263	0	0	410.280	1	
30	0	422.966	1	730	2058	2857	4205	851	-21.0	263	1	1	423.994	1	
31	0	440.593	0	460	1105	2857	4205	951	-16.0	409	0	1	444.755	0	
32	1	470.343	0	460	1105	2857	4205	951	-16.0	409	0	0	471.945	1	
33	0	481.415	1	730	2058	2857	4205	751	-15.0	200	1	1	482.224	1	
34	0	487.364	0	460	1105	2857	4205	901	-17.5	499	0	0	491.820	1	
35	0	499.614	0	730	2058	2857	4205	601	-18.0	149	1	1	500.899	1	
36	0	506.290	1	730	2058	2857	4205	1001	-16.5	330	1	1	507.414	1	
37	0	512.424	1	730	2058	2857	4205	951	-15.0	200	1	1	518.440	1	
38	0	523.222	0	730	2058	2857	4205	551	-19.5	409	1	1	524.137	1	
39	0	532.858	0	460	1105	2857	4205	851	-19.0	330	0	1	534.304	0	
40	1	543.079	0	460	1105	2857	4205	851	-19.0	330	0	1	544.318	0	
41	1	555.035	0	460	1105	2857	4205	851	-19.0	330	0	0	556.609	1	
42	0	564.395	0	460	1105	2857	4205	801	-16.0	499	0	1	565.543	0	
43	1	574.638	0	460	1105	2857	4205	801	-16.0	499	0	0	576.033	1	
44	0	587.320	0	460	1105	2857	4205	501	-17.5	149	0	0	588.456	1	
45	0	598.221	0	460	1105	2857	4205	651	-19.0	263	0	1	599.340	0	
46	1	606.033	0	460	1105	2857	4205	651	-19.0	263	0	1	607.033	0	
47	1	617.958	0	460	1105	2857	4205	651	-19.0	263	0	0	620.042	1	
48	0	629.250	0	460	1105	2857	4205	701	-14.5	263	0	1	630.423	0	
49	1	638.107	0	460	1105	2857	4205	701	-14.5	263	0	0	639.122	1	
50	0	651.490	0	730	2058	2857	4205	601	-18.0	499	1	1	652.433	1	
51	0	662.190	0	460	1105	2857	4205	551	-17.5	330	0	0	663.564	1	
52	0	672.798	0	460	1105	2857	4205	951	-14.5	200	0	0	673.564	1	
53	0	680.568	0	460	1105	2857	4205	651	-13.0	409	0	1	681.521	0	
54	1	694.633	0	460	1105	2857	4205	651	-13.0	409	0	0	696.103	1	
55	0	703.872	0	730	2058	2857	4205	501	-18.0	149	1	1	705.057	1	
56	0	710.806	0	730	2058	2857	4205	901	-21.0	409	1	1	711.656	1	
57	0	715.351	0	730	2058	2857	4205	801	-16.5	330	1	1	716.360	1	
58	0	720.591	0	460	1105	2857	4205	751	-13.0	149	0	0	721.488	1	
59	0	729.621	0	730	2058	2857	4205	1001	-19.5	200	1	1	730.527	1	
60	0	736.037	0	730	2058	2857	4205	901	-19.5	263	1	1	736.987	1	
61	0	741.505	0	730	2058	2857	4205	551	-16.5	499	1	1	742.571	1	
62	0	745.384	0	460	1105	2857	4205	601	-16.0	149	0	0	746.903	1	
63	0	750.644	0	460	1105	2857	4205	801	-19.0	330	0	0	752.029	1	
64	0	758.234	0	460	1105	2857	4205	751	-13.0	409	0	0	758.832	1	
65	0	764.551	0	460	1105	2857	4205	851	-19.0	499	0	0	765.559	1	
66	0	770.843	1	730	2058	2857	4205	651	-16.5	200	1	1	771.673	1	
67	0	777.191	0	730	2058	2857	4205	951	-18.0	263	1	1	779.897	1	
68	0	785.037	0	730	2058	2857	4205	701	-21.0	409	1	1	785.664	1	
69	0	790.880	0	460	1105	2857	4205	501	-16.0	263	0	1	792.067	0	
70	1	803.305	0	460	1105	2857	4205	501	-16.0	263	0	1	804.378	0	
71	1	810.442	0	460	1105	2857	4205	501	-16.0	263	0	0	811.446	1	
72	0	820.964	0	730	2058	2857	4205	701	-19.5	330	1	1	822.291	1	
73	0	827.102	0	730	2058	2857	4205	851	-15.0	200	1	1	828.088	1	
74	0	830.934	1	460	1105	2857	4205	551	-14.5	149	0	0	835.359	1	
75	0	840.758	0	460	1105	2857	4205	901	-17.5	499	0	0	841.878	1	
76	0	846.784	0	460	1105	2857	4205	951	-13.0	409	0	0	847.635	1	
77	0	852.284	0	730	2058	2857	4205	801	-21.0	200	1	1	853.157	1	
78	0	861.587	0	730	2058	2857	4205	1001	-21.0	330	1	1	862.307	1	
79	0	865.001	0	730	2058	2857	4205	751	-19.5	149	1	1	866.223	1	
80	0	870.634	0	460	1105	2857	4205	501	-13.0	263	0	1	871.944	0	
81	1	878.673	0	460	1105	2857	4205	501	-13.0	263	0	0	880.456	1	
82	0	885.735	0	460	1105	2857	4205	651	-16.0	499	0	0	886.918	1	
83	0	891.648	0	460	1105	2857	4205	801	-19.0	200	0	0	892.873	1	
84	0	898.042	0	730	2058	2857	4205	601	-16.5	409	1	1	899.170	1	
85	0	904.618	0	460	1105	2857	4205	501	-16.0	149	0	0	905.643	1	
86	0	911.673	1	730	2058	2857	4205	701	-19.5	330	1	1	912.320	1	
87	0	917.723	1	730	2058	2857	4205	551	-16.5	263	1	1	922.725	1	
88	0	927.427	0	730	2058	2857	4205	851	-15.0	499	1	1	928.737	1	
89	0	932.575	0	460	1105	2857	4205	901	-16.0	499	0	0	933.547	1	
90	0	938.678	0	460	1105	2857	4205	651	-19.0	149	0	0	940.000	1	
91	0	944.735	0	460	1105	2857	4205	951	-19.0	200	0	0	945.675	1	
92	0	954.894	1	730	2058	2857	4205	1001	-15.0	330	1	1	955.899	1	
93	0	960.911	0	730	2058	2857	4205	1001	-18.0	263	1	1	964.837	1	
94	0	967.814	0	460	1105	2857	4205	551	-14.5	409	0	0	969.200	1	
95	0	980.464	0	730	2058	2857	4205	951	-15.0	330	1	1	981.350	1	
96	0	984.932	0	730	2058	2857	4205	501	-19.5	200	1	1	986.251	1	
97	0	989.220	0	730	2058	2857	4205	901	-21.0	499	1	1	989.942	1	
98	0	993.599	0	460	1105	2857	4205	601	-14.5	263	0	0	994.960	1	
99	0	999.795	0	460	1105	2857	4205	751	-19.0	149	0	0	1001.072	1	
100	0	1005.241	0	730	2058	2857	4205	851	-19.5	409	1	1	1006.271	1	
101	0	1011.154	0	460	1105	2857	4205	651	-14.5	330	0	0	1012.082	1	
102	0	1017.115	0	460	1105	2857	4205	801	-13.0	149	0	0	1018.337	1	
103	0	1022.138	0	460	1105	2857	4205	951	-17.5	200	0	0	1023.219	1	
104	0	1026.789	0	460	1105	2857	4205	701	-19.0	409	0	0	1028.003	1	
105	0	1032.126	0	460	1105	2857	4205	851	-16.0	499	0	0	1033.556	1	
106	0	1037.692	0	730	2058	2857	4205	501	-16.5	263	1	1	1038.800	1	
107	0	1042.968	0	460	1105	2857	4205	751	-14.5	499	0	1	1044.157	0	
108	1	1051.954	0	460	1105	2857	4205	751	-14.5	499	0	0	1053.246	1	
109	0	1057.884	1	730	2058	2857	4205	901	-21.0	409	1	1	1058.671	1	
110	0	1062.741	0	730	2058	2857	4205	601	-18.0	200	1	1	1067.206	1	
111	0	1072.477	0	730	2058	2857	4205	1001	-19.5	330	1	1	1073.446	1	
112	0	1076.348	0	460	1105	2857	4205	551	-19.0	149	0	1	1077.430	0	
113	1	1086.471	0	460	1105	2857	4205	551	-19.0	149	0	0	1088.100	1	
114	0	1092.005	0	730	2058	2857	4205	801	-15.0	263	1	1	1092.894	1	
115	0	1098.066	0	730	2058	2857	4205	801	-18.0	499	1	1	1099.127	1	
116	0	1103.557	0	730	2058	2857	4205	951	-16.5	149	1	1	1104.303	1	
117	0	1107.925	0	460	1105	2857	4205	551	-16.0	200	0	0	1109.122	1	
118	0	1113.946	0	730	2058	2857	4205	501	-16.5	263	1	1	1114.977	1	
119	0	1119.328	0	730	2058	2857	4205	901	-19.5	409	1	1	1120.169	1	
120	0	1123.141	1	730	2058	2857	4205	751	-21.0	330	1	1	1124.145	1	
121	0	1127.218	0	460	1105	2857	4205	1001	-16.0	263	0	1	1130.659	0	
122	1	1137.416	1	460	1105	2857	4205	1001	-16.0	263	0	0	1138.467	1	
123	0	1142.180	0	460	1105	2857	4205	601	-19.0	499	0	0	1146.281	1	
124	0	1150.257	0	460	1105	2857	4205	701	-14.5	200	0	0	1151.428	1	
125	0	1155.379	0	460	1105	2857	4205	651	-17.5	330	0	0	1156.657	1	
126	0	1161.108	0	730	2058	2857	4205	601	-15.0	409	1	1	1162.106	1	
127	0	1166.423	0	460	1105	2857	4205	651	-16.0	149	0	0	1167.680	1	
128	0	1172.982	0	460	1105	2857	4205	1001	-14.5	409	0	0	1174.134	1	
129	0	1178.270	0	730	2058	2857	4205	851	-21.0	149	1	1	1179.203	1	
130	0	1183.595	0	460	1105	2857	4205	801	-14.5	330	0	1	1184.500	0	
131	1	1192.113	0	460	1105	2857	4205	801	-14.5	330	0	0	1193.236	1	
132	0	1199.658	0	460	1105	2857	4205	501	-16.0	200	0	0	1200.925	1	
133	0	1205.528	0	730	2058	2857	4205	901	-19.5	499	1	1	1206.420	1	
134	0	1209.742	0	730	2058	2857	4205	701	-15.0	263	1	1	1210.618	1	
135	0	1213.511	0	460	1105	2857	4205	951	-19.0	263	0	1	1214.299	0	
136	1	1243.729	0	460	1105	2857	4205	951	-19.0	263	0	1	1247.763	0	
137	1	1273.867	0	460	1105	2857	4205	951	-19.0	263	0	-1	-1.000	0	
138	0	1360.646	1	730	2058	2857	4205	751	-18.0	200	1	1	1371.448	1	
139	0	1378.635	0	460	1105	2857	4205	651	-13.0	499	0	0	1382.142	1	
140	0	1387.565	0	460	1105	2857	4205	601	-17.5	409	0	0	1389.844	1	
141	0	1395.308	0	730	2058	2857	4205	551	-16.5	149	1	1	1396.261	1	
142	0	1400.972	0	730	2058	2857	4205	901	-19.5	330	1	1	1402.329	1	
