Trial	CorrectionTrial?	StartTime	CenterReward?	F1	F2	F3	F4	HoldTime	Atten	Pitch	Side	Response	RespTime	Correct	
1	0	4.129	0	730	2058	2857	4205	801	-16.5	149	1	1	7.213	1	
2	0	17.789	0	460	1105	2857	4205	601	-13.0	200	0	1	19.424	0	
3	1	26.222	0	460	1105	2857	4205	601	-13.0	200	0	0	27.291	1	
4	0	33.382	0	730	2058	2857	4205	651	-18.0	330	1	1	34.639	1	
5	0	55.550	0	730	2058	2857	4205	951	-19.5	499	1	1	56.048	1	
6	0	59.391	0	460	1105	2857	4205	551	-17.5	409	0	1	60.181	0	
7	1	68.332	0	460	1105	2857	4205	551	-17.5	409	0	0	69.352	1	
8	0	76.946	1	730	2058	2857	4205	1001	-18.0	263	1	1	77.658	1	
9	0	82.878	0	730	2058	2857	4205	901	-21.0	330	1	1	85.893	1	
10	0	89.792	1	460	1105	2857	4205	701	-13.0	409	0	0	90.616	1	
11	0	96.398	0	460	1105	2857	4205	501	-19.0	200	0	0	101.312	1	
12	0	109.471	0	460	1105	2857	4205	751	-13.0	499	0	1	110.326	0	
13	1	118.089	0	460	1105	2857	4205	751	-13.0	499	0	0	119.563	1	
14	0	128.347	0	460	1105	2857	4205	551	-16.0	263	0	0	129.803	1	
15	0	138.205	0	460	1105	2857	4205	701	-17.5	149	0	0	139.476	1	
16	0	148.097	0	460	1105	2857	4205	801	-19.0	499	0	1	148.853	0	
17	1	156.848	1	460	1105	2857	4205	801	-19.0	499	0	0	158.113	1	
18	0	166.789	1	730	2058	2857	4205	851	-15.0	200	1	0	174.226	0	
19	1	182.137	0	730	2058	2857	4205	851	-15.0	200	1	1	182.869	1	
20	0	187.541	0	730	2058	2857	4205	501	-19.5	330	1	1	188.245	1	
21	0	195.893	0	730	2058	2857	4205	1001	-18.0	409	1	1	196.436	1	
22	0	199.976	0	730	2058	2857	4205	601	-18.0	149	1	1	200.645	1	
23	0	204.074	1	460	1105	2857	4205	651	-14.5	263	0	0	204.964	1	
24	0	212.122	0	460	1105	2857	4205	751	-17.5	499	0	0	216.455	1	
25	0	223.143	0	730	2058	2857	4205	901	-21.0	200	1	1	223.980	1	
26	0	228.344	0	460	1105	2857	4205	501	-16.0	149	0	0	229.286	1	
27	0	237.938	0	460	1105	2857	4205	651	-13.0	409	0	0	238.945	1	
28	0	246.671	0	460	1105	2857	4205	551	-14.5	263	0	1	247.677	0	
29	1	254.949	0	460	1105	2857	4205	551	-14.5	263	0	0	256.771	1	
30	0	265.867	0	730	2058	2857	4205	601	-21.0	330	1	1	267.319	1	
31	0	280.220	0	730	2058	2857	4205	901	-16.5	409	1	1	280.884	1	
32	0	289.409	0	460	1105	2857	4205	1001	-16.0	263	0	0	290.450	1	
33	0	298.707	0	730	2058	2857	4205	701	-21.0	330	1	1	299.884	1	
34	0	306.669	0	730	2058	2857	4205	851	-19.5	149	1	1	307.310	1	
35	0	310.462	0	460	1105	2857	4205	951	-13.0	200	0	0	311.303	1	
36	0	319.085	0	730	2058	2857	4205	801	-16.5	499	1	1	320.319	1	
37	0	324.607	0	730	2058	2857	4205	501	-19.5	330	1	1	325.624	1	
38	0	328.440	1	460	1105	2857	4205	601	-19.0	263	0	0	329.351	1	
39	0	336.698	0	730	2058	2857	4205	551	-15.0	200	1	0	340.304	0	
40	1	349.307	0	730	2058	2857	4205	551	-15.0	200	1	1	350.083	1	
41	0	354.682	0	460	1105	2857	4205	651	-14.5	149	0	0	355.643	1	
42	0	360.502	0	460	1105	2857	4205	751	-16.0	499	0	0	362.060	1	
43	0	370.570	0	460	1105	2857	4205	1001	-19.0	409	0	1	371.332	0	
44	1	379.938	0	460	1105	2857	4205	1001	-19.0	409	0	0	381.388	1	
45	0	389.099	0	460	1105	2857	4205	701	-13.0	200	0	1	390.163	0	
46	1	396.868	0	460	1105	2857	4205	701	-13.0	200	0	1	397.633	0	
47	1	404.035	0	460	1105	2857	4205	701	-13.0	200	0	0	405.866	1	
48	0	413.330	0	730	2058	2857	4205	901	-21.0	149	1	1	414.321	1	
49	0	423.632	0	730	2058	2857	4205	801	-19.5	499	1	1	424.378	1	
50	0	430.402	0	730	2058	2857	4205	951	-18.0	263	1	1	431.126	1	
51	0	435.485	0	730	2058	2857	4205	601	-19.5	330	1	1	436.248	1	
52	0	439.608	0	460	1105	2857	4205	751	-14.5	409	0	0	440.180	1	
53	0	445.254	0	460	1105	2857	4205	501	-16.0	499	0	0	446.073	1	
54	0	453.960	0	730	2058	2857	4205	701	-15.0	330	1	1	454.762	1	
55	0	463.274	0	730	2058	2857	4205	951	-15.0	149	1	1	463.991	1	
56	0	466.820	0	460	1105	2857	4205	651	-16.0	409	0	0	468.921	1	
57	0	475.241	0	460	1105	2857	4205	801	-19.0	263	0	0	476.363	1	
58	0	487.981	0	460	1105	2857	4205	901	-17.5	200	0	0	488.698	1	
59	0	498.257	0	730	2058	2857	4205	1001	-18.0	409	1	1	499.239	1	
60	0	504.203	0	730	2058	2857	4205	551	-15.0	499	1	1	505.109	1	
61	0	509.879	0	460	1105	2857	4205	651	-19.0	263	0	0	510.956	1	
62	0	516.335	0	730	2058	2857	4205	601	-16.5	149	1	1	517.304	1	
63	0	521.868	1	730	2058	2857	4205	851	-15.0	330	1	1	522.516	1	
64	0	531.906	0	730	2058	2857	4205	551	-19.5	200	1	1	532.894	1	
65	0	536.434	0	730	2058	2857	4205	751	-21.0	149	1	1	537.569	1	
66	0	540.673	0	460	1105	2857	4205	501	-14.5	409	0	0	541.609	1	
67	0	548.661	0	730	2058	2857	4205	901	-21.0	499	1	1	549.355	1	
68	0	553.174	0	460	1105	2857	4205	951	-16.0	330	0	1	554.175	0	
69	1	565.156	0	460	1105	2857	4205	951	-16.0	330	0	1	566.554	0	
70	1	578.720	0	460	1105	2857	4205	951	-16.0	330	0	0	579.441	1	
71	0	586.186	0	460	1105	2857	4205	701	-13.0	200	0	1	587.226	0	
72	1	608.203	0	460	1105	2857	4205	701	-13.0	200	0	0	610.211	1	
73	0	619.540	0	460	1105	2857	4205	1001	-14.5	263	0	0	620.704	1	
74	0	627.170	0	730	2058	2857	4205	951	-19.5	499	1	1	628.018	1	
75	0	631.903	0	730	2058	2857	4205	551	-18.0	330	1	1	632.740	1	
76	0	635.607	0	460	1105	2857	4205	801	-14.5	149	0	0	637.513	1	
77	0	655.361	0	730	2058	2857	4205	1001	-21.0	263	1	1	656.505	1	
78	0	719.461	0	460	1105	2857	4205	901	-13.0	200	0	1	722.089	0	
79	1	729.960	0	460	1105	2857	4205	901	-13.0	200	0	0	731.049	1	
80	0	737.463	1	460	1105	2857	4205	851	-16.0	409	0	0	738.293	1	
81	0	745.420	0	730	2058	2857	4205	751	-21.0	200	1	0	752.048	0	
82	1	764.396	0	730	2058	2857	4205	751	-21.0	200	1	1	765.525	1	
83	0	768.076	0	460	1105	2857	4205	501	-14.5	409	0	0	787.122	1	
84	0	788.475	0	730	2058	2857	4205	651	-19.5	330	1	0	790.374	0	
85	1	821.076	0	730	2058	2857	4205	651	-19.5	330	1	1	822.279	1	
