Trial	CorrectionTrial?	StartTime	CenterReward?	F1	F2	F3	F4	HoldTime	Atten	Pitch	Side	Response	RespTime	Correct	
1	0	13.0738	0	730	2058	2857	4205	901	-14.0	263	1	1	14.3826	1	
2	0	19.5955	1	730	2058	2857	4205	551	-14.0	459	1	0	25.7063	0	
3	1	32.7366	0	730	2058	2857	4205	551	-14.0	459	1	0	35.4917	0	
4	1	42.8569	0	730	2058	2857	4205	551	-14.0	459	1	0	44.7123	0	
5	1	52.9158	0	730	2058	2857	4205	551	-14.0	459	1	0	56.6083	0	
6	1	63.2343	1	730	2058	2857	4205	551	-14.0	459	1	1	69.2632	1	
7	0	74.9956	0	730	2058	2857	4205	851	-14.0	149	1	1	75.9589	1	
8	0	78.9710	0	730	2058	2857	4205	501	-14.0	330	1	1	80.2150	1	
9	0	83.1866	0	460	1105	2857	4205	1001	-12.0	200	0	0	84.3391	1	
10	0	96.2010	0	460	1105	2857	4205	651	-12.0	330	0	0	97.5125	1	
11	0	102.6504	0	579	1508	2857	4205	501	-12.0	200	-1	1	103.7866	-1	
12	0	107.5322	0	460	1105	2857	4205	701	-12.0	263	0	0	108.8903	1	
13	0	126.1428	1	460	1105	2857	4205	751	-12.0	149	0	0	131.0721	1	
14	0	136.8466	0	730	2058	2857	4205	601	-14.0	459	1	1	138.0405	1	
15	0	141.2721	0	460	1105	2857	4205	501	-12.0	459	0	0	143.0147	1	
16	0	148.8692	0	460	1105	2857	4205	901	-12.0	330	0	0	149.8559	1	
17	0	154.3307	0	460	1105	2857	4205	551	-12.0	263	0	0	155.8547	1	
18	0	160.4001	0	730	2058	2857	4205	601	-14.0	149	1	1	160.8691	1	
19	0	164.3948	0	460	1105	2857	4205	1001	-12.0	200	0	0	166.3906	1	
20	0	171.4217	0	730	2058	2857	4205	851	-14.0	200	1	1	172.0539	1	
21	0	175.1131	0	579	1508	2857	4205	501	-12.0	200	-1	0	176.6132	-1	
22	0	182.1473	1	730	2058	2857	4205	751	-14.0	263	1	1	182.7379	1	
23	0	185.5800	0	730	2058	2857	4205	701	-14.0	330	1	1	188.6557	1	
24	0	191.8454	0	460	1105	2857	4205	801	-12.0	459	0	0	193.8783	1	
25	0	199.0331	0	730	2058	2857	4205	951	-14.0	149	1	1	199.5200	1	
26	0	202.6604	0	460	1105	2857	4205	751	-12.0	459	0	0	204.6946	1	
27	0	210.0729	0	460	1105	2857	4205	1001	-12.0	200	0	1	210.8018	0	
28	1	220.3875	1	460	1105	2857	4205	1001	-12.0	200	0	0	224.0582	1	
29	0	228.8822	0	579	1508	2857	4205	501	-12.0	200	-1	1	230.0557	-1	
30	0	233.6486	0	730	2058	2857	4205	851	-14.0	330	1	1	234.2466	1	
31	0	239.1856	0	730	2058	2857	4205	801	-14.0	263	1	1	239.8174	1	
32	0	242.7230	0	460	1105	2857	4205	601	-12.0	459	0	0	245.5121	1	
33	0	249.7341	0	460	1105	2857	4205	551	-12.0	330	0	0	251.1552	1	
34	0	256.6678	0	730	2058	2857	4205	701	-14.0	149	1	1	257.2463	1	
35	0	260.2586	0	730	2058	2857	4205	651	-14.0	200	1	1	260.9685	1	
36	0	264.6215	0	460	1105	2857	4205	951	-12.0	330	0	0	266.1207	1	
37	0	271.3009	0	730	2058	2857	4205	901	-14.0	459	1	1	271.9121	1	
38	0	274.7569	0	460	1105	2857	4205	751	-12.0	200	0	0	276.3155	1	
39	0	281.2191	0	460	1105	2857	4205	851	-12.0	263	0	0	283.1898	1	
40	0	288.4985	0	460	1105	2857	4205	1001	-12.0	149	0	0	290.4028	1	
41	0	296.2917	0	730	2058	2857	4205	601	-14.0	200	1	1	297.3284	1	
42	0	300.4544	0	460	1105	2857	4205	801	-12.0	330	0	1	301.6733	0	
43	1	309.8135	0	460	1105	2857	4205	801	-12.0	330	0	0	311.7921	1	
44	0	316.6760	0	579	1508	2857	4205	501	-12.0	200	-1	1	317.7889	-1	
45	0	320.3694	0	730	2058	2857	4205	501	-14.0	263	1	1	321.2180	1	
46	0	324.3569	0	460	1105	2857	4205	651	-12.0	149	0	0	326.1333	1	
47	0	330.5615	0	460	1105	2857	4205	851	-12.0	263	0	0	332.0525	1	
48	0	337.4580	0	730	2058	2857	4205	751	-14.0	200	1	1	338.4165	1	
49	0	341.2907	0	730	2058	2857	4205	801	-14.0	149	1	1	342.0509	1	
50	0	347.1606	0	730	2058	2857	4205	501	-14.0	330	1	1	348.5025	1	
51	0	351.7269	0	730	2058	2857	4205	551	-14.0	459	1	0	353.7954	0	
52	1	363.5952	0	730	2058	2857	4205	551	-14.0	459	1	1	364.6453	1	
53	0	370.7326	0	730	2058	2857	4205	1001	-14.0	149	1	1	371.3994	1	
54	0	374.6508	0	460	1105	2857	4205	901	-12.0	263	0	0	375.7672	1	
55	0	380.5621	0	460	1105	2857	4205	701	-12.0	459	0	0	381.8359	1	
56	0	387.3425	1	730	2058	2857	4205	951	-14.0	330	1	0	392.1360	0	
57	1	399.2944	0	730	2058	2857	4205	951	-14.0	330	1	1	399.7698	1	
58	0	403.7340	0	579	1508	2857	4205	501	-12.0	200	-1	0	405.9987	-1	
59	0	410.7611	0	730	2058	2857	4205	751	-14.0	330	1	1	411.6032	1	
60	0	414.7758	0	460	1105	2857	4205	951	-12.0	149	0	0	415.7556	1	
61	0	420.3361	0	460	1105	2857	4205	501	-12.0	459	0	0	422.7788	1	
62	0	428.4229	0	730	2058	2857	4205	701	-14.0	263	1	1	429.3340	1	
63	0	432.2530	0	460	1105	2857	4205	601	-12.0	200	0	0	433.8501	1	
64	0	439.1765	0	579	1508	2857	4205	501	-12.0	200	-1	0	440.5841	-1	
65	0	446.0877	1	730	2058	2857	4205	551	-14.0	200	1	1	446.8977	1	
66	0	449.7320	0	460	1105	2857	4205	1001	-12.0	263	0	1	451.8336	0	
67	1	458.5697	1	460	1105	2857	4205	1001	-12.0	263	0	1	467.5813	0	
68	1	482.7784	0	460	1105	2857	4205	1001	-12.0	263	0	0	484.4392	1	
69	0	489.5595	0	730	2058	2857	4205	901	-14.0	330	1	1	490.4916	1	
70	0	493.3863	0	460	1105	2857	4205	851	-12.0	459	0	0	494.7678	1	
71	0	500.1993	0	460	1105	2857	4205	751	-12.0	330	0	0	501.8295	1	
72	0	506.8203	0	460	1105	2857	4205	851	-12.0	459	0	0	508.3607	1	
73	0	513.6843	1	730	2058	2857	4205	601	-14.0	200	1	1	514.4894	1	
74	0	516.7879	0	730	2058	2857	4205	501	-14.0	263	1	1	519.2582	1	
75	0	522.6911	0	730	2058	2857	4205	951	-14.0	149	1	1	523.7789	1	
76	0	527.0613	0	460	1105	2857	4205	801	-12.0	263	0	0	528.6091	1	
77	0	533.4475	0	730	2058	2857	4205	551	-14.0	149	1	1	534.6862	1	
78	0	537.6498	0	460	1105	2857	4205	701	-12.0	200	0	0	539.1732	1	
79	0	543.9730	0	730	2058	2857	4205	901	-14.0	330	1	1	544.8097	1	
80	0	547.9892	0	730	2058	2857	4205	1001	-14.0	459	1	0	549.3330	0	
81	1	557.9300	0	730	2058	2857	4205	1001	-14.0	459	1	1	558.3233	1	
82	0	564.5047	0	730	2058	2857	4205	751	-14.0	459	1	1	565.2387	1	
83	0	568.4396	0	460	1105	2857	4205	551	-12.0	200	0	0	570.4121	1	
84	0	574.7639	0	579	1508	2857	4205	501	-12.0	200	-1	0	576.1174	-1	
85	0	581.6547	0	460	1105	2857	4205	851	-12.0	330	0	0	583.4769	1	
86	0	589.2071	1	460	1105	2857	4205	951	-12.0	263	0	0	592.6382	1	
87	0	598.4336	0	730	2058	2857	4205	601	-14.0	200	1	1	599.3262	1	
88	0	602.4487	0	460	1105	2857	4205	801	-12.0	149	0	0	604.3686	1	
89	0	609.7650	1	579	1508	2857	4205	501	-12.0	200	-1	0	614.7617	-1	
90	0	620.0818	0	730	2058	2857	4205	901	-14.0	459	1	1	621.0899	1	
91	0	624.0451	0	730	2058	2857	4205	651	-14.0	330	1	1	624.8212	1	
92	0	628.1600	0	460	1105	2857	4205	501	-12.0	459	0	0	629.9307	1	
93	0	636.2825	0	730	2058	2857	4205	851	-14.0	200	1	1	637.5571	1	
94	0	640.9147	0	730	2058	2857	4205	551	-14.0	330	1	1	642.1869	1	
95	0	645.7405	0	460	1105	2857	4205	651	-12.0	263	0	0	648.4880	1	
96	0	653.6193	0	460	1105	2857	4205	601	-12.0	149	0	0	656.3915	1	
97	0	662.0959	0	730	2058	2857	4205	901	-14.0	330	1	1	662.8956	1	
98	0	665.9203	0	460	1105	2857	4205	701	-12.0	200	0	0	667.8024	1	
99	0	673.7046	0	460	1105	2857	4205	1001	-12.0	459	0	0	675.7128	1	
100	0	681.2924	0	460	1105	2857	4205	801	-12.0	149	0	0	683.2183	1	
101	0	689.3265	1	460	1105	2857	4205	751	-12.0	263	0	0	693.7874	1	
102	0	699.3265	0	460	1105	2857	4205	851	-12.0	263	0	0	701.1235	1	
103	0	706.4002	0	730	2058	2857	4205	651	-14.0	149	1	1	707.3122	1	
104	0	710.2572	0	730	2058	2857	4205	601	-14.0	200	1	1	711.2434	1	
105	0	714.1776	0	579	1508	2857	4205	501	-12.0	200	-1	1	715.2699	-1	
106	0	720.7896	0	730	2058	2857	4205	1001	-14.0	459	1	1	721.3442	1	
107	0	725.8653	0	730	2058	2857	4205	951	-14.0	263	1	1	726.4660	1	
108	0	731.6315	1	460	1105	2857	4205	551	-12.0	330	0	1	735.0316	0	
109	1	742.3486	0	460	1105	2857	4205	551	-12.0	330	0	0	744.5574	1	
110	0	749.2465	1	730	2058	2857	4205	501	-14.0	149	1	1	753.5283	1	
111	0	756.6791	0	460	1105	2857	4205	801	-12.0	459	0	0	758.3334	1	
112	0	763.5901	0	730	2058	2857	4205	701	-14.0	200	1	1	764.8849	1	
113	0	767.9639	0	730	2058	2857	4205	651	-14.0	149	1	1	769.0816	1	
114	0	772.0657	0	460	1105	2857	4205	501	-12.0	263	0	0	774.7532	1	
115	0	779.3783	0	579	1508	2857	4205	501	-12.0	200	-1	1	780.7939	-1	
116	0	783.8917	0	730	2058	2857	4205	901	-14.0	459	1	1	784.6584	1	
117	0	787.9755	1	460	1105	2857	4205	801	-12.0	200	0	1	791.3402	0	
118	1	797.7882	0	460	1105	2857	4205	801	-12.0	200	0	0	799.2935	1	
119	0	804.5153	0	730	2058	2857	4205	551	-14.0	200	1	0	806.5832	0	
120	1	814.4830	0	730	2058	2857	4205	551	-14.0	200	1	1	815.3933	1	
121	0	818.6520	0	460	1105	2857	4205	1001	-12.0	459	0	1	820.1230	0	
122	1	829.7171	0	460	1105	2857	4205	1001	-12.0	459	0	0	832.0145	1	
123	0	836.7249	1	460	1105	2857	4205	851	-12.0	149	0	0	840.9217	1	
124	0	846.5971	0	730	2058	2857	4205	951	-14.0	330	1	1	847.8214	1	
125	0	850.9133	0	460	1105	2857	4205	751	-12.0	263	0	0	852.6522	1	
126	0	858.7690	0	730	2058	2857	4205	901	-14.0	263	1	1	859.3956	1	
127	0	862.4161	0	730	2058	2857	4205	501	-14.0	330	1	1	863.6069	1	
128	0	867.5007	0	579	1508	2857	4205	501	-12.0	200	-1	0	869.9215	-1	
129	0	875.5861	1	730	2058	2857	4205	801	-14.0	200	1	1	880.0020	1	
130	0	884.3196	0	460	1105	2857	4205	751	-12.0	459	0	0	886.8304	1	
131	0	891.9436	0	460	1105	2857	4205	601	-12.0	330	0	0	893.4311	1	
132	0	899.1711	0	730	2058	2857	4205	951	-14.0	149	1	1	900.2652	1	
133	0	903.3193	1	460	1105	2857	4205	851	-12.0	200	0	1	906.3089	0	
134	1	912.9131	0	460	1105	2857	4205	851	-12.0	200	0	0	914.1081	1	
135	0	919.9957	0	460	1105	2857	4205	551	-12.0	459	0	0	921.4525	1	
136	0	927.5577	0	730	2058	2857	4205	701	-14.0	263	1	1	928.4801	1	
137	0	931.3867	0	460	1105	2857	4205	501	-12.0	459	0	0	933.1582	1	
138	0	937.8010	1	579	1508	2857	4205	501	-12.0	200	-1	1	941.0884	-1	
139	0	944.3474	0	730	2058	2857	4205	851	-14.0	149	1	1	945.0940	1	
140	0	948.4449	0	730	2058	2857	4205	751	-14.0	330	1	1	949.6456	1	
141	0	953.8055	0	460	1105	2857	4205	601	-12.0	200	0	0	955.7250	1	
142	0	960.8447	0	730	2058	2857	4205	801	-14.0	263	1	1	961.8671	1	
143	0	965.2124	0	460	1105	2857	4205	1001	-12.0	330	0	0	967.2248	1	
144	0	972.4045	0	460	1105	2857	4205	651	-12.0	459	0	0	974.9541	1	
145	0	980.5940	0	460	1105	2857	4205	901	-12.0	149	0	0	983.4326	1	
146	0	988.6948	0	460	1105	2857	4205	951	-12.0	200	0	1	990.0437	0	
147	1	1008.3677	0	460	1105	2857	4205	951	-12.0	200	0	0	1009.8671	1	
148	0	1039.3085	0	730	2058	2857	4205	1001	-14.0	149	1	1	1041.8778	1	
