Trial	CorrectionTrial?	StartTime	CenterReward?	F1	F2	F3	F4	HoldTime	Atten	Pitch	Side	Response	RespTime	Correct	
1	0	17.152	0	460	1105	2857	4205	951	-12.0	459	0	1	20.302	0	
2	1	27.912	0	460	1105	2857	4205	951	-12.0	459	0	1	28.535	0	
3	1	38.162	0	460	1105	2857	4205	951	-12.0	459	0	0	39.337	1	
4	0	48.827	1	460	1105	2857	4205	801	-12.0	149	0	0	52.539	1	
5	0	64.105	0	460	1105	2857	4205	751	-12.0	330	0	0	65.491	1	
6	0	75.509	0	730	2058	2857	4205	651	-14.0	200	1	1	76.606	1	
7	0	81.504	0	460	1105	2857	4205	1001	-12.0	263	0	0	82.833	1	
8	0	93.157	0	730	2058	2857	4205	601	-14.0	149	1	1	94.227	1	
9	0	108.781	0	730	2058	2857	4205	501	-14.0	459	1	1	109.933	1	
10	0	122.639	0	730	2058	2857	4205	701	-14.0	200	1	1	123.501	1	
11	0	135.437	0	730	2058	2857	4205	551	-14.0	330	1	1	136.568	1	
12	0	150.917	0	460	1105	2857	4205	851	-12.0	263	0	0	153.133	1	
13	0	162.133	0	460	1105	2857	4205	551	-12.0	459	0	0	163.315	1	
14	0	174.389	0	730	2058	2857	4205	951	-14.0	330	1	1	175.664	1	
15	0	186.095	1	730	2058	2857	4205	501	-14.0	263	1	1	188.960	1	
16	0	199.293	0	460	1105	2857	4205	1001	-12.0	149	0	0	201.596	1	
17	0	211.447	0	460	1105	2857	4205	651	-12.0	200	0	0	212.819	1	
18	0	222.719	0	460	1105	2857	4205	601	-12.0	149	0	0	223.820	1	
19	0	233.480	0	460	1105	2857	4205	751	-12.0	200	0	0	235.137	1	
20	0	245.223	0	730	2058	2857	4205	801	-14.0	459	1	1	246.120	1	
21	0	262.592	0	730	2058	2857	4205	851	-14.0	330	1	1	263.659	1	
22	0	275.175	0	730	2058	2857	4205	701	-14.0	263	1	0	276.600	0	
23	1	285.886	0	730	2058	2857	4205	701	-14.0	263	1	1	286.811	1	
24	0	298.264	0	460	1105	2857	4205	551	-12.0	330	0	0	299.598	1	
25	0	309.318	0	730	2058	2857	4205	801	-14.0	263	1	1	310.333	1	
26	0	320.316	1	460	1105	2857	4205	601	-12.0	459	0	0	323.770	1	
27	0	332.946	0	730	2058	2857	4205	701	-14.0	200	1	1	334.155	1	
28	0	344.299	0	730	2058	2857	4205	851	-14.0	149	1	0	346.146	0	
29	1	356.620	0	730	2058	2857	4205	851	-14.0	149	1	1	357.974	1	
30	0	368.272	0	730	2058	2857	4205	1001	-14.0	263	1	1	369.747	1	
31	0	380.447	0	460	1105	2857	4205	901	-12.0	330	0	0	381.576	1	
32	0	392.859	1	730	2058	2857	4205	751	-14.0	200	1	0	396.935	0	
33	1	404.033	0	730	2058	2857	4205	751	-14.0	200	1	1	405.049	1	
34	0	415.510	0	460	1105	2857	4205	951	-12.0	149	0	0	417.374	1	
35	0	427.144	0	460	1105	2857	4205	651	-12.0	459	0	0	428.782	1	
36	0	441.932	0	460	1105	2857	4205	801	-12.0	200	0	0	442.925	1	
37	0	455.799	0	730	2058	2857	4205	951	-14.0	459	1	0	457.039	0	
38	1	466.096	0	730	2058	2857	4205	951	-14.0	459	1	1	466.843	1	
39	0	476.516	0	460	1105	2857	4205	851	-12.0	263	0	0	477.688	1	
40	0	489.098	0	460	1105	2857	4205	1001	-12.0	330	0	0	490.036	1	
41	0	498.859	0	730	2058	2857	4205	501	-14.0	149	1	1	500.088	1	
42	0	510.321	0	460	1105	2857	4205	601	-12.0	263	0	0	511.579	1	
43	0	522.464	0	460	1105	2857	4205	751	-12.0	200	0	0	523.526	1	
44	0	531.999	0	730	2058	2857	4205	651	-14.0	149	1	1	533.587	1	
45	0	545.870	0	730	2058	2857	4205	901	-14.0	330	1	0	547.079	0	
46	1	554.205	0	730	2058	2857	4205	901	-14.0	330	1	0	555.627	0	
47	1	564.436	0	730	2058	2857	4205	901	-14.0	330	1	1	564.822	1	
48	0	576.673	0	730	2058	2857	4205	701	-14.0	459	1	1	577.585	1	
49	0	588.532	0	460	1105	2857	4205	551	-12.0	200	0	0	589.808	1	
50	0	598.858	0	460	1105	2857	4205	501	-12.0	330	0	0	600.859	1	
51	0	611.813	0	460	1105	2857	4205	751	-12.0	263	0	0	613.080	1	
52	0	622.824	0	730	2058	2857	4205	601	-14.0	149	1	1	623.730	1	
53	0	630.073	0	460	1105	2857	4205	951	-12.0	459	0	0	631.053	1	
54	0	641.579	0	730	2058	2857	4205	701	-14.0	330	1	1	642.629	1	
55	0	659.605	0	730	2058	2857	4205	801	-14.0	200	1	1	661.088	1	
56	0	670.680	0	730	2058	2857	4205	1001	-14.0	459	1	1	671.304	1	
57	0	680.360	0	460	1105	2857	4205	851	-12.0	149	0	0	681.527	1	
58	0	693.427	0	730	2058	2857	4205	651	-14.0	263	1	1	694.569	1	
59	0	703.951	0	460	1105	2857	4205	851	-12.0	263	0	0	705.189	1	
60	0	715.271	0	460	1105	2857	4205	501	-12.0	459	0	0	716.847	1	
61	0	726.419	0	730	2058	2857	4205	951	-14.0	200	1	1	727.104	1	
62	0	728.959	0	460	1105	2857	4205	801	-12.0	330	0	1	729.536	0	
63	1	737.897	0	460	1105	2857	4205	801	-12.0	330	0	0	738.674	1	
64	0	751.147	0	460	1105	2857	4205	551	-12.0	149	0	0	752.974	1	
65	0	763.614	0	730	2058	2857	4205	601	-14.0	149	1	1	764.463	1	
66	0	773.815	0	460	1105	2857	4205	651	-12.0	459	0	0	775.066	1	
67	0	784.641	0	730	2058	2857	4205	901	-14.0	200	1	0	785.851	0	
68	1	797.582	0	730	2058	2857	4205	901	-14.0	200	1	1	798.581	1	
69	0	808.665	0	730	2058	2857	4205	751	-14.0	330	1	1	809.546	1	
70	0	817.986	0	730	2058	2857	4205	701	-14.0	263	1	1	819.175	1	
71	0	829.438	0	730	2058	2857	4205	951	-14.0	330	1	0	831.019	0	
72	1	839.989	0	730	2058	2857	4205	951	-14.0	330	1	1	840.750	1	
73	0	850.149	0	730	2058	2857	4205	751	-14.0	200	1	1	851.323	1	
74	0	859.956	0	730	2058	2857	4205	651	-14.0	459	1	1	860.784	1	
75	0	871.574	0	460	1105	2857	4205	701	-12.0	149	0	0	873.138	1	
76	0	883.945	0	730	2058	2857	4205	601	-14.0	263	1	1	885.079	1	
77	0	893.201	0	460	1105	2857	4205	1001	-12.0	459	0	0	896.395	1	
78	0	906.088	0	460	1105	2857	4205	551	-12.0	330	0	0	907.825	1	
79	0	918.609	0	460	1105	2857	4205	801	-12.0	149	0	0	919.633	1	
80	0	929.896	0	730	2058	2857	4205	851	-14.0	263	1	1	930.659	1	
81	0	935.641	0	460	1105	2857	4205	901	-12.0	200	0	0	939.706	1	
82	0	950.390	0	730	2058	2857	4205	751	-14.0	459	1	1	951.528	1	
83	0	965.276	0	730	2058	2857	4205	851	-14.0	330	1	1	966.065	1	
84	0	973.079	0	730	2058	2857	4205	601	-14.0	149	1	1	973.988	1	
85	0	982.960	0	460	1105	2857	4205	551	-12.0	200	0	0	984.328	1	
86	0	1000.092	0	730	2058	2857	4205	701	-14.0	263	1	0	1001.823	0	
87	1	1009.179	1	730	2058	2857	4205	701	-14.0	263	1	1	1012.002	1	
88	0	1021.461	0	730	2058	2857	4205	951	-14.0	149	1	1	1022.924	1	
89	0	1030.480	0	460	1105	2857	4205	1001	-12.0	200	0	1	1032.752	0	
90	1	1039.803	1	460	1105	2857	4205	1001	-12.0	200	0	1	1043.579	0	
91	1	1052.018	0	460	1105	2857	4205	1001	-12.0	200	0	0	1053.267	1	
92	0	1062.077	1	460	1105	2857	4205	801	-12.0	459	0	0	1065.445	1	
93	0	1074.831	0	460	1105	2857	4205	501	-12.0	263	0	0	1076.654	1	
94	0	1087.299	0	460	1105	2857	4205	901	-12.0	330	0	0	1088.722	1	
95	0	1097.872	1	730	2058	2857	4205	901	-14.0	459	1	1	1101.407	1	
96	0	1105.558	0	460	1105	2857	4205	551	-12.0	149	0	0	1107.780	1	
97	0	1116.813	1	730	2058	2857	4205	701	-14.0	330	1	1	1119.529	1	
98	0	1126.352	0	730	2058	2857	4205	601	-14.0	200	1	1	1127.823	1	
99	0	1133.241	0	730	2058	2857	4205	851	-14.0	263	1	1	1134.409	1	
100	0	1140.785	0	730	2058	2857	4205	651	-14.0	263	1	1	1142.036	1	
101	0	1150.221	1	460	1105	2857	4205	951	-12.0	330	0	1	1153.601	0	
102	1	1160.981	0	460	1105	2857	4205	951	-12.0	330	0	0	1162.447	1	
103	0	1169.763	0	460	1105	2857	4205	1001	-12.0	459	0	0	1171.108	1	
104	0	1178.336	0	460	1105	2857	4205	501	-12.0	200	0	0	1180.023	1	
105	0	1186.387	0	460	1105	2857	4205	751	-12.0	149	0	0	1190.833	1	
106	0	1196.597	1	730	2058	2857	4205	651	-14.0	263	1	1	1199.430	1	
107	0	1204.202	1	460	1105	2857	4205	501	-12.0	330	0	1	1207.751	0	
108	1	1214.624	0	460	1105	2857	4205	501	-12.0	330	0	0	1216.478	1	
109	0	1221.804	1	730	2058	2857	4205	851	-14.0	459	1	1	1224.646	1	
110	0	1228.285	0	460	1105	2857	4205	551	-12.0	200	0	0	1229.893	1	
111	0	1233.344	0	460	1105	2857	4205	601	-12.0	149	0	0	1235.356	1	
112	0	1239.646	0	730	2058	2857	4205	701	-14.0	459	1	0	1240.975	0	
113	1	1256.725	0	730	2058	2857	4205	701	-14.0	459	1	1	1257.814	1	
114	0	1261.529	0	460	1105	2857	4205	901	-12.0	330	0	0	1262.433	1	
115	0	1267.675	1	730	2058	2857	4205	751	-14.0	149	1	0	1270.692	0	
116	1	1288.411	1	730	2058	2857	4205	751	-14.0	149	1	0	1290.570	0	
117	1	1297.895	0	730	2058	2857	4205	751	-14.0	149	1	1	1299.003	1	
118	0	1302.030	0	730	2058	2857	4205	951	-14.0	263	1	1	1303.386	1	
119	0	1307.908	0	460	1105	2857	4205	801	-12.0	200	0	0	1308.358	1	
120	0	1312.302	0	730	2058	2857	4205	901	-14.0	200	1	0	1313.668	0	
121	1	1344.838	0	730	2058	2857	4205	901	-14.0	200	1	0	1349.563	0	
122	1	1357.521	0	730	2058	2857	4205	901	-14.0	200	1	0	1358.796	0	
