Trial	CorrectionTrial?	StartTime	CenterReward?	F1	F2	F3	F4	HoldTime	Atten	Pitch	Side	Response	RespTime	Correct	
1	0	10.0783	0	730	2058	2857	4205	502	-14.0	149	1	1	12.0278	1	
2	0	21.6166	0	460	1105	2857	4205	503	-12.0	330	0	1	30.1672	0	
3	1	38.7786	0	460	1105	2857	4205	503	-12.0	330	0	1	39.5159	0	
4	1	49.8901	0	460	1105	2857	4205	503	-12.0	330	0	0	51.0347	1	
5	0	60.1143	0	460	1105	2857	4205	511	-12.0	263	0	0	61.9100	1	
6	0	68.9799	0	730	2058	2857	4205	509	-14.0	459	1	1	69.6170	1	
7	0	72.8515	0	579	1508	2857	4205	501	-12.0	200	-1	1	73.9950	-1	
8	0	77.9011	0	460	1105	2857	4205	504	-12.0	200	0	0	80.0228	1	
9	0	85.2982	0	460	1105	2857	4205	505	-12.0	263	0	0	86.4191	1	
10	0	91.6700	0	730	2058	2857	4205	508	-14.0	459	1	1	92.3855	1	
11	0	95.9912	0	730	2058	2857	4205	506	-14.0	330	1	1	96.8999	1	
12	0	100.8911	0	460	1105	2857	4205	501	-12.0	149	0	0	102.1121	1	
13	0	107.4819	0	730	2058	2857	4205	509	-14.0	149	1	1	108.4091	1	
14	0	112.7595	0	730	2058	2857	4205	506	-14.0	330	1	0	114.2975	0	
15	1	123.8050	1	730	2058	2857	4205	506	-14.0	330	1	1	124.4436	1	
16	0	128.5149	0	460	1105	2857	4205	511	-12.0	263	0	0	133.4981	1	
17	0	138.3598	0	730	2058	2857	4205	504	-14.0	200	1	1	138.9492	1	
18	0	142.5931	0	579	1508	2857	4205	501	-12.0	200	-1	1	143.6293	-1	
19	0	148.2937	0	460	1105	2857	4205	507	-12.0	263	0	0	150.5193	1	
20	0	155.4703	0	460	1105	2857	4205	508	-12.0	330	0	0	157.3854	1	
21	0	162.5142	0	460	1105	2857	4205	501	-12.0	459	0	0	164.2566	1	
22	0	169.3418	0	730	2058	2857	4205	503	-14.0	200	1	1	170.2462	1	
23	0	173.7191	1	730	2058	2857	4205	502	-14.0	149	1	1	178.2378	1	
24	0	181.7884	0	730	2058	2857	4205	511	-14.0	330	1	1	182.8939	1	
25	0	187.2999	0	460	1105	2857	4205	501	-12.0	200	0	0	190.0624	1	
26	0	195.2460	1	730	2058	2857	4205	508	-14.0	459	1	1	196.2762	1	
27	0	199.3384	0	460	1105	2857	4205	509	-12.0	149	0	1	202.7819	0	
28	1	208.6126	0	460	1105	2857	4205	509	-12.0	149	0	0	213.5440	1	
29	0	218.5036	0	460	1105	2857	4205	510	-12.0	263	0	0	220.3871	1	
30	0	225.3843	0	730	2058	2857	4205	503	-14.0	459	1	1	226.8284	1	
31	0	230.3945	0	730	2058	2857	4205	507	-14.0	149	1	1	231.5364	1	
32	0	236.2369	0	730	2058	2857	4205	506	-14.0	263	1	1	237.2311	1	
33	0	240.9047	0	460	1105	2857	4205	505	-12.0	330	0	0	242.6509	1	
34	0	247.6501	0	730	2058	2857	4205	504	-14.0	200	1	1	248.7225	1	
35	0	253.0794	0	730	2058	2857	4205	501	-14.0	200	1	1	254.2263	1	
36	0	259.2983	0	730	2058	2857	4205	509	-14.0	149	1	1	260.5315	1	
37	0	265.6038	0	730	2058	2857	4205	503	-14.0	459	1	0	268.0344	0	
38	1	276.5016	1	730	2058	2857	4205	503	-14.0	459	1	1	277.0846	1	
39	0	279.9308	0	460	1105	2857	4205	505	-12.0	263	0	1	283.4300	0	
40	1	290.8364	0	460	1105	2857	4205	505	-12.0	263	0	0	293.1642	1	
41	0	297.6644	0	460	1105	2857	4205	502	-12.0	330	0	0	299.6162	1	
42	0	303.8469	0	460	1105	2857	4205	511	-12.0	459	0	0	306.1567	1	
43	0	310.6024	0	460	1105	2857	4205	507	-12.0	263	0	0	311.9646	1	
44	0	317.2949	0	460	1105	2857	4205	504	-12.0	200	0	0	318.7692	1	
45	0	324.3087	0	730	2058	2857	4205	508	-14.0	149	1	1	324.9555	1	
46	0	327.6608	0	460	1105	2857	4205	510	-12.0	330	0	0	330.2126	1	
47	0	335.0270	0	579	1508	2857	4205	501	-12.0	200	-1	1	336.0206	-1	
48	0	339.1193	0	460	1105	2857	4205	506	-12.0	149	0	0	340.5461	1	
49	0	345.7145	0	460	1105	2857	4205	508	-12.0	330	0	0	348.5060	1	
50	0	353.3659	0	730	2058	2857	4205	507	-14.0	263	1	1	353.9065	1	
51	0	357.6142	0	460	1105	2857	4205	505	-12.0	459	0	1	358.3508	0	
52	1	368.0918	0	460	1105	2857	4205	505	-12.0	459	0	0	371.0056	1	
53	0	375.5368	0	460	1105	2857	4205	504	-12.0	200	0	0	377.6256	1	
54	0	382.2195	0	460	1105	2857	4205	501	-12.0	330	0	0	383.7673	1	
55	0	389.5744	0	730	2058	2857	4205	503	-14.0	149	1	1	390.1510	1	
56	0	392.7765	0	579	1508	2857	4205	501	-12.0	200	-1	1	393.6500	-1	
57	0	398.5659	0	730	2058	2857	4205	502	-14.0	459	1	1	399.5115	1	
58	0	403.8817	0	730	2058	2857	4205	506	-14.0	263	1	1	404.8760	1	
59	0	411.7802	0	730	2058	2857	4205	511	-14.0	330	1	1	412.9881	1	
60	0	416.9060	0	730	2058	2857	4205	509	-14.0	459	1	1	417.9414	1	
61	0	423.2908	1	460	1105	2857	4205	510	-12.0	149	0	0	428.5320	1	
62	0	433.5040	0	730	2058	2857	4205	508	-14.0	200	1	1	434.4888	1	
63	0	437.9099	1	460	1105	2857	4205	507	-12.0	200	0	1	441.8033	0	
64	1	453.2476	0	460	1105	2857	4205	507	-12.0	200	0	0	455.5637	1	
65	0	461.3651	0	730	2058	2857	4205	501	-14.0	459	1	1	462.3270	1	
66	0	465.0646	0	460	1105	2857	4205	505	-12.0	330	0	1	466.6910	0	
67	1	472.9680	0	460	1105	2857	4205	505	-12.0	330	0	0	474.9364	1	
68	0	479.0290	0	730	2058	2857	4205	502	-14.0	263	1	1	480.1639	1	
69	0	483.1688	0	460	1105	2857	4205	503	-12.0	149	0	1	496.0823	0	
70	1	501.9527	0	460	1105	2857	4205	503	-12.0	149	0	0	503.2206	1	
71	0	507.5841	0	460	1105	2857	4205	504	-12.0	200	0	1	508.6662	0	
72	1	524.7115	0	460	1105	2857	4205	504	-12.0	200	0	0	535.3938	1	
73	0	541.1558	0	730	2058	2857	4205	507	-14.0	263	1	1	541.7324	1	
74	0	544.6767	0	460	1105	2857	4205	508	-12.0	149	0	1	546.7260	0	
75	1	558.8390	0	460	1105	2857	4205	508	-12.0	149	0	1	559.6715	0	
76	1	575.9884	0	460	1105	2857	4205	508	-12.0	149	0	-1	-1.0000	0	
