Trial	CorrectionTrial?	StartTime	CenterReward?	F1	F2	F3	F4	HoldTime	Atten	Pitch	Side	Response	RespTime	Correct	
1	0	56.6140	0	730	2058	2857	4205	1001	-10.0	263	1	1	57.7345	1	
2	0	72.9657	0	460	1105	2857	4205	501	-10.0	200	0	0	74.1668	1	
3	0	93.9833	0	460	1105	2857	4205	901	-10.0	459	0	1	94.6407	0	
4	1	101.1745	0	460	1105	2857	4205	901	-10.0	459	0	1	102.8155	0	
5	1	121.5140	1	460	1105	2857	4205	901	-10.0	459	0	0	122.5653	1	
6	0	127.2179	0	730	2058	2857	4205	801	-10.0	149	1	1	128.5772	1	
7	0	141.4328	0	460	1105	2857	4205	751	-10.0	330	0	0	142.3130	1	
8	0	146.3572	0	730	2058	2857	4205	701	-10.0	263	1	1	147.2169	1	
9	0	160.2736	0	730	2058	2857	4205	551	-10.0	330	1	0	161.3418	0	
10	1	178.6157	0	730	2058	2857	4205	551	-10.0	330	1	1	179.7678	1	
11	0	193.9510	0	730	2058	2857	4205	601	-10.0	149	1	1	194.9755	1	
12	0	203.3656	0	460	1105	2857	4205	651	-10.0	200	0	0	203.8348	1	
13	0	207.6893	0	460	1105	2857	4205	851	-10.0	459	0	0	208.8369	1	
14	0	212.7685	0	730	2058	2857	4205	851	-10.0	263	1	1	213.8643	1	
15	0	228.3381	0	730	2058	2857	4205	951	-10.0	330	1	0	229.2847	0	
16	1	241.9424	0	730	2058	2857	4205	951	-10.0	330	1	1	243.3012	1	
17	0	252.7147	0	460	1105	2857	4205	551	-10.0	149	0	0	253.5936	1	
18	0	257.4425	1	460	1105	2857	4205	901	-10.0	459	0	0	258.3179	1	
19	0	269.4515	0	730	2058	2857	4205	1001	-10.0	200	1	1	270.2595	1	
20	0	279.3022	0	460	1105	2857	4205	801	-10.0	149	0	0	279.8516	1	
21	0	283.6873	0	460	1105	2857	4205	751	-10.0	263	0	0	284.6821	1	
22	0	288.1979	0	730	2058	2857	4205	651	-10.0	200	1	1	289.3710	1	
23	0	297.9121	0	730	2058	2857	4205	501	-10.0	330	1	1	299.4030	1	
24	0	308.5390	0	460	1105	2857	4205	601	-10.0	459	0	0	309.3779	1	
25	0	313.2097	0	730	2058	2857	4205	951	-10.0	459	1	1	314.6014	1	
26	0	327.5177	0	460	1105	2857	4205	1001	-10.0	200	0	0	328.1883	1	
27	0	331.8883	0	460	1105	2857	4205	601	-10.0	263	0	0	332.7811	1	
28	0	337.3919	0	460	1105	2857	4205	751	-10.0	330	0	0	338.5715	1	
29	0	342.0644	0	460	1105	2857	4205	801	-10.0	149	0	0	343.3897	1	
30	0	347.1725	0	730	2058	2857	4205	501	-10.0	200	1	1	349.1557	1	
31	0	381.6721	0	460	1105	2857	4205	851	-10.0	263	0	0	382.4646	1	
32	0	391.3291	0	730	2058	2857	4205	901	-10.0	149	1	1	391.9528	1	
33	0	412.9261	0	730	2058	2857	4205	651	-10.0	330	1	0	413.6185	0	
34	1	423.5332	0	730	2058	2857	4205	651	-10.0	330	1	1	424.2181	1	
35	0	438.3793	0	730	2058	2857	4205	701	-10.0	459	1	1	439.3733	1	
36	0	451.8747	0	460	1105	2857	4205	701	-10.0	459	0	0	452.6490	1	
37	0	456.6615	0	460	1105	2857	4205	751	-10.0	330	0	0	457.6375	1	
38	0	461.9312	0	730	2058	2857	4205	1001	-10.0	200	1	1	462.9742	1	
39	0	472.0154	0	460	1105	2857	4205	901	-10.0	149	0	0	472.6613	1	
40	0	476.1550	0	730	2058	2857	4205	501	-10.0	263	1	1	477.7205	1	
41	0	486.8052	0	730	2058	2857	4205	801	-10.0	263	1	1	489.3426	1	
42	0	500.3730	0	460	1105	2857	4205	951	-10.0	459	0	0	501.5755	1	
43	0	505.3241	0	460	1105	2857	4205	651	-10.0	330	0	0	506.3303	1	
44	0	518.0233	0	730	2058	2857	4205	601	-10.0	149	1	1	520.4888	1	
45	0	524.2280	0	730	2058	2857	4205	551	-10.0	200	1	0	525.4819	0	
46	1	538.2860	0	730	2058	2857	4205	551	-10.0	200	1	1	539.5748	1	
47	0	552.2115	0	460	1105	2857	4205	851	-10.0	459	0	0	552.9618	1	
48	0	556.6530	0	730	2058	2857	4205	751	-10.0	330	1	1	559.4046	1	
49	0	567.6712	0	730	2058	2857	4205	601	-10.0	263	1	1	568.9383	1	
50	0	581.4875	0	460	1105	2857	4205	701	-10.0	149	0	0	582.9704	1	
51	0	586.5329	0	730	2058	2857	4205	1001	-10.0	200	1	1	589.3433	1	
52	0	596.5767	0	460	1105	2857	4205	501	-10.0	263	0	0	597.3367	1	
53	0	601.8235	0	730	2058	2857	4205	651	-10.0	149	1	0	603.1867	0	
54	1	612.3454	0	730	2058	2857	4205	651	-10.0	149	1	0	614.1347	0	
55	1	633.4887	0	730	2058	2857	4205	651	-10.0	149	1	1	634.8406	1	
56	0	673.5094	0	730	2058	2857	4205	901	-10.0	200	1	1	675.1765	1	
57	0	682.3137	0	460	1105	2857	4205	551	-10.0	330	0	0	683.4722	1	
58	0	686.9847	0	460	1105	2857	4205	951	-10.0	459	0	0	688.3589	1	
59	0	695.1524	1	460	1105	2857	4205	501	-10.0	459	0	0	696.4038	1	
60	0	700.0004	0	460	1105	2857	4205	851	-10.0	330	0	0	701.3685	1	
61	0	705.2297	0	730	2058	2857	4205	701	-10.0	200	1	0	709.3995	0	
62	1	720.0517	0	730	2058	2857	4205	701	-10.0	200	1	1	720.8235	1	
63	0	727.5087	0	460	1105	2857	4205	951	-10.0	263	0	0	728.7236	1	
64	0	733.8058	0	730	2058	2857	4205	601	-10.0	149	1	0	735.7033	0	
65	1	757.3101	0	730	2058	2857	4205	601	-10.0	149	1	1	758.1360	1	
66	0	763.7746	0	460	1105	2857	4205	901	-10.0	263	0	0	764.3710	1	
67	0	767.6723	0	730	2058	2857	4205	651	-10.0	149	1	0	769.1099	0	
68	1	784.1100	0	730	2058	2857	4205	651	-10.0	149	1	0	785.1065	0	
69	1	834.0784	0	730	2058	2857	4205	651	-10.0	149	1	-1	-1.0000	0	
