Trial	CorrectionTrial?	StartTime	CenterReward?	F1	F2	F3	F4	HoldTime	Atten	Pitch	Side	Response	RespTime	Correct	
1	0	9.9273	1	730	2058	2857	4205	751	-10.0	263	1	1	11.2673	1	
2	0	29.0674	0	460	1105	2857	4205	651	-10.0	459	0	0	29.6801	1	
3	0	37.9275	0	730	2058	2857	4205	551	-10.0	149	1	1	38.8926	1	
4	0	61.4594	0	460	1105	2857	4205	951	-10.0	200	0	0	62.5703	1	
5	0	73.5456	0	730	2058	2857	4205	1001	-10.0	330	1	1	74.5331	1	
6	0	89.1844	1	730	2058	2857	4205	701	-10.0	200	1	1	89.8224	1	
7	0	105.0095	0	460	1105	2857	4205	901	-10.0	263	0	0	105.9836	1	
8	0	109.7076	1	460	1105	2857	4205	501	-10.0	459	0	0	113.5399	1	
9	0	124.3695	0	730	2058	2857	4205	801	-10.0	149	1	1	125.3700	1	
10	0	129.1676	1	460	1105	2857	4205	601	-10.0	330	0	0	130.1709	1	
11	0	142.5852	0	460	1105	2857	4205	501	-10.0	330	0	0	143.6515	1	
12	0	147.3528	0	730	2058	2857	4205	651	-10.0	263	1	1	150.1556	1	
13	0	161.2539	0	460	1105	2857	4205	851	-10.0	200	0	0	162.3035	1	
14	0	165.4247	0	730	2058	2857	4205	601	-10.0	459	1	1	168.1857	1	
15	0	173.8064	0	730	2058	2857	4205	801	-10.0	149	1	1	174.6812	1	
16	0	195.1173	0	460	1105	2857	4205	901	-10.0	200	0	0	196.3787	1	
17	0	201.1537	0	730	2058	2857	4205	551	-10.0	330	1	0	202.3481	0	
18	1	218.9405	0	730	2058	2857	4205	551	-10.0	330	1	0	219.6014	0	
19	1	225.5364	1	730	2058	2857	4205	551	-10.0	330	1	1	226.1327	1	
20	0	242.5148	0	730	2058	2857	4205	701	-10.0	149	1	1	244.3876	1	
21	0	260.0999	0	460	1105	2857	4205	1001	-10.0	459	0	0	261.2140	1	
22	0	265.2166	0	460	1105	2857	4205	751	-10.0	263	0	0	266.2616	1	
23	0	273.1246	0	730	2058	2857	4205	501	-10.0	149	1	1	275.1292	1	
24	0	289.3506	0	730	2058	2857	4205	851	-10.0	263	1	1	290.4071	1	
25	0	322.8134	0	730	2058	2857	4205	1001	-10.0	330	1	1	323.7559	1	
26	0	331.9421	0	460	1105	2857	4205	701	-10.0	459	0	0	332.6011	1	
27	0	336.5261	0	460	1105	2857	4205	901	-10.0	200	0	0	337.3910	1	
28	0	350.9472	0	460	1105	2857	4205	951	-10.0	200	0	0	352.0440	1	
29	0	355.8216	0	730	2058	2857	4205	601	-10.0	149	1	1	357.6575	1	
30	0	365.7018	0	460	1105	2857	4205	801	-10.0	263	0	0	366.9007	1	
31	0	370.5240	0	730	2058	2857	4205	551	-10.0	459	1	1	372.0943	1	
32	0	382.5706	0	460	1105	2857	4205	751	-10.0	330	0	0	384.0815	1	
33	0	388.4508	1	730	2058	2857	4205	751	-10.0	459	1	1	390.5754	1	
34	0	396.5740	0	460	1105	2857	4205	601	-10.0	200	0	0	399.2612	1	
35	0	403.1331	0	460	1105	2857	4205	551	-10.0	263	0	0	404.6367	1	
36	0	408.7143	0	460	1105	2857	4205	701	-10.0	330	0	0	410.0790	1	
37	0	414.0128	0	730	2058	2857	4205	501	-10.0	149	1	1	417.0223	1	
38	0	421.0783	0	730	2058	2857	4205	651	-10.0	459	1	1	422.1486	1	
39	0	452.7496	0	730	2058	2857	4205	1001	-10.0	263	1	1	453.7266	1	
40	0	464.7908	0	460	1105	2857	4205	851	-10.0	200	0	0	465.6044	1	
41	0	472.4868	0	460	1105	2857	4205	901	-10.0	149	0	0	473.8053	1	
42	0	477.4332	0	730	2058	2857	4205	801	-10.0	330	1	1	480.4935	1	
43	0	483.1562	0	730	2058	2857	4205	651	-10.0	263	1	1	485.6248	1	
44	0	492.7812	0	460	1105	2857	4205	701	-10.0	149	0	0	494.1372	1	
45	0	504.1868	0	730	2058	2857	4205	501	-10.0	200	1	1	504.9478	1	
46	0	512.6959	0	730	2058	2857	4205	801	-10.0	330	1	1	514.1565	1	
47	0	525.3690	0	460	1105	2857	4205	901	-10.0	459	0	0	526.5629	1	
48	0	530.7041	0	730	2058	2857	4205	951	-10.0	263	1	1	532.5056	1	
49	0	538.9278	0	460	1105	2857	4205	851	-10.0	200	0	0	539.6383	1	
50	0	543.7857	0	460	1105	2857	4205	751	-10.0	330	0	0	545.2092	1	
51	0	549.1861	0	460	1105	2857	4205	601	-10.0	149	0	0	550.4941	1	
52	0	577.8149	0	730	2058	2857	4205	1001	-10.0	459	1	1	578.8105	1	
53	0	591.4089	0	730	2058	2857	4205	601	-10.0	459	1	1	592.5813	1	
54	0	598.7374	0	460	1105	2857	4205	551	-10.0	149	0	0	599.7386	1	
55	0	610.4748	0	460	1105	2857	4205	951	-10.0	200	0	0	611.5676	1	
56	0	615.4143	0	460	1105	2857	4205	801	-10.0	330	0	0	616.6882	1	
57	0	620.6931	0	730	2058	2857	4205	651	-10.0	263	1	1	623.4672	1	
58	0	628.3246	0	460	1105	2857	4205	1001	-10.0	459	0	0	629.0861	1	
59	0	634.1796	0	730	2058	2857	4205	901	-10.0	149	1	1	635.6389	1	
60	0	642.2819	0	730	2058	2857	4205	751	-10.0	263	1	1	642.8679	1	
61	0	649.6764	0	460	1105	2857	4205	701	-10.0	200	0	0	650.4821	1	
62	0	654.6693	0	730	2058	2857	4205	851	-10.0	330	1	0	656.0074	0	
63	1	689.2635	0	730	2058	2857	4205	851	-10.0	330	1	1	689.9945	1	
64	0	699.7878	0	730	2058	2857	4205	601	-10.0	149	1	1	700.8047	1	
65	0	706.2982	0	460	1105	2857	4205	651	-10.0	459	0	0	707.3527	1	
66	0	714.2880	0	730	2058	2857	4205	801	-10.0	200	1	1	717.9321	1	
67	0	721.5878	0	460	1105	2857	4205	501	-10.0	330	0	0	722.5669	1	
68	0	726.3635	0	460	1105	2857	4205	1001	-10.0	263	0	0	727.6511	1	
69	0	731.9653	0	730	2058	2857	4205	951	-10.0	149	1	1	733.4274	1	
70	0	743.8108	0	730	2058	2857	4205	901	-10.0	200	1	0	745.2334	0	
71	1	754.7206	0	730	2058	2857	4205	901	-10.0	200	1	1	757.5249	1	
72	0	762.1783	0	730	2058	2857	4205	551	-10.0	330	1	1	762.9125	1	
73	0	772.4403	0	460	1105	2857	4205	701	-10.0	263	0	0	773.0150	1	
74	0	780.0655	0	460	1105	2857	4205	751	-10.0	459	0	0	781.6043	1	
75	0	785.4417	0	730	2058	2857	4205	701	-10.0	200	1	1	786.6636	1	
76	0	794.8027	0	460	1105	2857	4205	751	-10.0	149	0	0	795.7032	1	
77	0	799.1845	0	460	1105	2857	4205	501	-10.0	459	0	0	800.7871	1	
78	0	804.7985	0	730	2058	2857	4205	951	-10.0	330	1	1	806.3857	1	
79	0	815.2104	0	460	1105	2857	4205	901	-10.0	263	0	0	816.2034	1	
80	0	840.8769	1	730	2058	2857	4205	551	-10.0	330	1	1	842.3168	1	
81	0	856.7719	0	460	1105	2857	4205	651	-10.0	459	0	0	857.8399	1	
82	0	861.8589	0	460	1105	2857	4205	1001	-10.0	200	0	0	862.5726	1	
83	0	866.2352	0	730	2058	2857	4205	601	-10.0	263	1	0	867.7510	0	
84	1	878.5575	0	730	2058	2857	4205	601	-10.0	263	1	1	880.8177	1	
85	0	890.9036	0	730	2058	2857	4205	851	-10.0	149	1	0	891.8562	0	
86	1	936.0121	0	730	2058	2857	4205	851	-10.0	149	1	1	936.8175	1	
87	0	939.1144	0	460	1105	2857	4205	751	-10.0	149	0	0	939.7698	1	
88	0	1003.4069	0	460	1105	2857	4205	601	-10.0	263	0	-1	-1.0000	0	
