Trial	CorrectionTrial?	StartTime	CenterReward?	F1	F2	F3	F4	HoldTime	Atten	Pitch	Side	Response	RespTime	Correct	
1	0	10.3161	0	730	2058	2857	4205	511	-14.0	200	1	1	11.2362	1	
2	0	16.7005	0	730	2058	2857	4205	502	-14.0	149	1	1	17.4440	1	
3	0	22.7012	0	460	1105	2857	4205	501	-12.0	263	0	0	24.0628	1	
4	0	30.5128	0	460	1105	2857	4205	507	-12.0	459	0	0	31.2783	1	
5	0	36.8190	0	460	1105	2857	4205	510	-12.0	330	0	0	37.6077	1	
6	0	43.3289	0	730	2058	2857	4205	508	-14.0	263	1	1	43.8251	1	
7	0	48.9409	0	460	1105	2857	4205	505	-12.0	330	0	0	50.0983	1	
8	0	56.3745	1	730	2058	2857	4205	509	-14.0	200	1	1	57.4101	1	
9	0	61.1867	1	730	2058	2857	4205	504	-14.0	459	1	1	67.6893	1	
10	0	72.3783	0	579	1508	2857	4205	501	-12.0	200	-1	1	74.1801	-1	
11	0	78.9855	0	460	1105	2857	4205	502	-12.0	459	0	0	80.9328	1	
12	0	86.3946	0	460	1105	2857	4205	506	-12.0	149	0	0	87.3217	1	
13	0	92.4868	0	730	2058	2857	4205	510	-14.0	330	1	0	93.5949	0	
14	1	100.3240	0	730	2058	2857	4205	510	-14.0	330	1	1	101.5415	1	
15	0	107.3016	0	730	2058	2857	4205	503	-14.0	263	1	1	108.2853	1	
16	0	113.0551	0	730	2058	2857	4205	505	-14.0	200	1	1	114.1130	1	
17	0	119.4277	0	579	1508	2857	4205	501	-12.0	200	-1	0	122.5159	-1	
18	0	128.1047	0	730	2058	2857	4205	504	-14.0	200	1	0	129.5331	0	
19	1	135.8050	0	730	2058	2857	4205	504	-14.0	200	1	1	136.7779	1	
20	0	141.7296	0	730	2058	2857	4205	509	-14.0	459	1	1	142.6759	1	
21	0	148.7553	0	460	1105	2857	4205	501	-12.0	149	0	0	155.8615	1	
22	0	161.2936	0	460	1105	2857	4205	507	-12.0	330	0	0	162.6266	1	
23	0	167.7796	0	460	1105	2857	4205	511	-12.0	330	0	0	170.1226	1	
24	0	176.1431	0	460	1105	2857	4205	505	-12.0	263	0	0	177.5580	1	
25	0	182.9994	0	730	2058	2857	4205	507	-14.0	149	1	1	183.9886	1	
26	0	188.8737	0	460	1105	2857	4205	503	-12.0	459	0	0	191.1425	1	
27	0	196.8074	0	730	2058	2857	4205	501	-14.0	200	1	0	198.7118	0	
28	1	210.2198	0	730	2058	2857	4205	501	-14.0	200	1	1	211.1231	1	
29	0	216.1141	0	730	2058	2857	4205	502	-14.0	263	1	1	216.9688	1	
30	0	220.6839	0	579	1508	2857	4205	501	-12.0	200	-1	1	221.9580	-1	
31	0	226.2827	0	460	1105	2857	4205	508	-12.0	459	0	0	227.6221	1	
32	0	233.3894	0	730	2058	2857	4205	506	-14.0	149	1	0	234.7364	0	
33	1	242.0082	0	730	2058	2857	4205	506	-14.0	149	1	1	242.9278	1	
34	0	248.2174	0	460	1105	2857	4205	510	-12.0	330	0	1	249.3274	0	
35	1	255.8195	0	460	1105	2857	4205	510	-12.0	330	0	0	256.7003	1	
36	0	261.8664	0	460	1105	2857	4205	501	-12.0	330	0	0	263.0043	1	
37	0	272.9259	0	460	1105	2857	4205	507	-12.0	263	0	0	273.6920	1	
38	0	279.2513	0	730	2058	2857	4205	503	-14.0	200	1	1	280.2528	1	
39	0	285.0758	0	730	2058	2857	4205	509	-14.0	149	1	1	285.9252	1	
40	0	291.5820	0	460	1105	2857	4205	505	-12.0	459	0	0	292.8310	1	
41	0	299.6909	0	730	2058	2857	4205	508	-14.0	330	1	1	300.5088	1	
42	0	305.0194	0	730	2058	2857	4205	506	-14.0	459	1	1	306.2349	1	
43	0	311.0768	0	730	2058	2857	4205	511	-14.0	149	1	1	312.3198	1	
44	0	317.0023	0	579	1508	2857	4205	501	-12.0	200	-1	0	318.3293	-1	
45	0	324.9516	1	460	1105	2857	4205	502	-12.0	200	0	0	326.5758	1	
46	0	332.4643	0	460	1105	2857	4205	510	-12.0	200	0	0	334.9530	1	
47	0	341.0006	0	730	2058	2857	4205	502	-14.0	149	1	0	342.4119	0	
48	1	355.3132	0	730	2058	2857	4205	502	-14.0	149	1	1	356.2140	1	
49	0	360.5243	1	460	1105	2857	4205	501	-12.0	263	0	1	366.1790	0	
50	1	375.4055	0	460	1105	2857	4205	501	-12.0	263	0	0	376.2191	1	
51	0	381.9482	0	460	1105	2857	4205	507	-12.0	459	0	0	383.4685	1	
52	0	388.8267	0	730	2058	2857	4205	503	-14.0	330	1	1	389.7935	1	
53	0	392.8583	0	579	1508	2857	4205	501	-12.0	200	-1	1	394.4965	-1	
54	0	398.1631	0	460	1105	2857	4205	509	-12.0	330	0	0	399.9380	1	
55	0	406.1504	0	730	2058	2857	4205	505	-14.0	263	1	0	409.3070	0	
56	1	423.8675	0	730	2058	2857	4205	505	-14.0	263	1	1	424.6160	1	
57	0	427.6129	0	460	1105	2857	4205	508	-12.0	149	0	1	428.7032	0	
58	1	436.3497	0	460	1105	2857	4205	508	-12.0	149	0	0	437.6427	1	
59	0	443.4738	0	460	1105	2857	4205	506	-12.0	459	0	0	445.4430	1	
60	0	451.0027	0	730	2058	2857	4205	508	-14.0	263	1	1	451.9683	1	
61	0	455.8331	0	460	1105	2857	4205	503	-12.0	459	0	1	457.0535	0	
62	1	470.3184	0	460	1105	2857	4205	503	-12.0	459	0	0	471.1116	1	
63	0	476.8383	0	730	2058	2857	4205	509	-14.0	200	1	0	478.1316	0	
64	1	488.2744	0	730	2058	2857	4205	509	-14.0	200	1	1	489.5097	1	
65	0	492.4948	0	460	1105	2857	4205	511	-12.0	330	0	0	494.0110	1	
66	0	498.2352	0	730	2058	2857	4205	501	-14.0	149	1	1	499.2623	1	
67	0	502.6851	0	730	2058	2857	4205	504	-14.0	459	1	1	503.7863	1	
68	0	507.3637	0	730	2058	2857	4205	505	-14.0	149	1	1	509.2822	1	
69	0	535.1293	0	579	1508	2857	4205	501	-12.0	200	-1	1	541.1834	-1	
70	0	545.2505	0	730	2058	2857	4205	506	-14.0	200	1	0	546.4524	0	
71	1	577.1809	0	730	2058	2857	4205	506	-14.0	200	1	1	578.6365	1	
72	0	582.5932	0	460	1105	2857	4205	507	-12.0	263	0	0	583.3735	1	
73	0	613.8516	0	460	1105	2857	4205	506	-12.0	263	0	0	616.0917	1	
74	0	621.8733	0	460	1105	2857	4205	508	-12.0	330	0	1	623.1645	0	
75	1	648.9009	0	460	1105	2857	4205	508	-12.0	330	0	1	650.1161	0	
