Trial	CorrectionTrial?	StartTime	CenterReward?	F1	F2	F3	F4	HoldTime	Atten	Pitch	Side	Response	RespTime	Correct	
1	0	4.538	0	730	2058	2857	4205	751	-11.0	459	1	1	9.256	1	
2	0	16.142	0	730	2058	2857	4205	851	-17.0	200	1	0	17.441	0	
3	1	42.116	0	730	2058	2857	4205	851	-17.0	200	1	1	42.768	1	
4	0	47.064	0	730	2058	2857	4205	551	-17.0	149	1	1	48.013	1	
5	0	53.671	0	460	1105	2857	4205	901	-9.0	263	0	0	55.087	1	
6	0	64.177	0	730	2058	2857	4205	501	-11.0	330	1	1	65.389	1	
7	0	73.407	0	460	1105	2857	4205	801	-15.0	459	0	0	74.589	1	
8	0	83.759	0	460	1105	2857	4205	651	-9.0	200	0	0	85.053	1	
9	0	94.342	0	460	1105	2857	4205	601	-9.0	263	0	1	95.612	0	
10	1	104.864	1	460	1105	2857	4205	601	-9.0	263	0	1	109.370	0	
11	1	117.185	0	460	1105	2857	4205	601	-9.0	263	0	0	118.604	1	
12	0	126.337	0	730	2058	2857	4205	951	-11.0	149	1	1	127.344	1	
13	0	130.123	1	460	1105	2857	4205	1001	-15.0	330	0	0	140.876	1	
14	0	148.606	0	730	2058	2857	4205	851	-17.0	330	1	1	149.952	1	
15	0	155.400	0	460	1105	2857	4205	551	-15.0	200	0	0	156.563	1	
16	0	165.625	1	460	1105	2857	4205	601	-9.0	263	0	0	171.499	1	
17	0	180.442	0	730	2058	2857	4205	901	-11.0	149	1	1	181.437	1	
18	0	188.666	0	730	2058	2857	4205	501	-17.0	459	1	1	189.516	1	
19	0	193.782	0	730	2058	2857	4205	1001	-11.0	149	1	1	194.613	1	
20	0	207.273	0	460	1105	2857	4205	801	-15.0	263	0	0	208.528	1	
21	0	219.028	0	460	1105	2857	4205	701	-9.0	459	0	0	221.664	1	
22	0	229.426	0	460	1105	2857	4205	751	-9.0	200	0	0	230.997	1	
23	0	239.257	0	730	2058	2857	4205	651	-11.0	330	1	1	240.268	1	
24	0	244.179	0	730	2058	2857	4205	901	-17.0	149	1	1	244.968	1	
25	0	250.031	0	730	2058	2857	4205	851	-17.0	330	1	1	250.819	1	
26	0	264.952	1	730	2058	2857	4205	601	-11.0	459	1	1	268.413	1	
27	0	271.221	0	730	2058	2857	4205	801	-17.0	263	1	1	272.249	1	
28	0	277.056	0	460	1105	2857	4205	551	-9.0	200	0	0	278.564	1	
29	0	288.257	0	460	1105	2857	4205	951	-15.0	330	0	0	289.358	1	
30	0	297.825	0	460	1105	2857	4205	501	-15.0	263	0	0	300.832	1	
31	0	309.653	1	460	1105	2857	4205	1001	-9.0	149	0	0	313.192	1	
32	0	321.885	0	730	2058	2857	4205	701	-11.0	459	1	1	322.971	1	
33	0	331.538	0	460	1105	2857	4205	751	-9.0	200	0	0	332.734	1	
34	0	341.394	0	460	1105	2857	4205	1001	-9.0	149	0	0	343.006	1	
35	0	351.652	0	460	1105	2857	4205	851	-15.0	330	0	0	353.100	1	
36	0	362.636	0	460	1105	2857	4205	751	-9.0	200	0	1	364.398	0	
37	1	372.417	0	460	1105	2857	4205	751	-9.0	200	0	0	374.389	1	
38	0	384.219	0	730	2058	2857	4205	701	-17.0	459	1	1	385.343	1	
39	0	387.792	0	730	2058	2857	4205	651	-11.0	263	1	1	388.648	1	
40	0	392.649	0	730	2058	2857	4205	901	-11.0	330	1	1	393.603	1	
41	0	406.795	0	460	1105	2857	4205	601	-15.0	263	0	0	408.370	1	
42	0	417.351	0	730	2058	2857	4205	551	-17.0	200	1	1	418.636	1	
43	0	422.144	0	730	2058	2857	4205	801	-17.0	459	1	1	422.974	1	
44	0	426.809	0	460	1105	2857	4205	951	-15.0	149	0	0	428.202	1	
45	0	437.377	1	460	1105	2857	4205	651	-15.0	330	0	0	441.911	1	
46	0	450.997	0	730	2058	2857	4205	951	-11.0	263	1	1	452.062	1	
47	0	460.224	0	460	1105	2857	4205	1001	-9.0	200	0	0	462.275	1	
48	0	471.645	0	730	2058	2857	4205	801	-17.0	149	1	1	472.951	1	
49	0	484.406	0	730	2058	2857	4205	601	-17.0	459	1	0	486.084	0	
50	1	493.486	0	730	2058	2857	4205	601	-17.0	459	1	1	495.101	1	
51	0	499.303	0	460	1105	2857	4205	501	-9.0	149	0	0	501.235	1	
52	0	509.182	0	730	2058	2857	4205	851	-11.0	459	1	1	511.092	1	
53	0	523.664	0	460	1105	2857	4205	751	-9.0	200	0	0	524.963	1	
54	0	532.195	0	730	2058	2857	4205	701	-17.0	263	1	1	533.560	1	
55	0	537.735	0	460	1105	2857	4205	551	-9.0	330	0	1	539.106	0	
56	1	553.568	0	460	1105	2857	4205	551	-9.0	330	0	0	554.991	1	
57	0	566.366	0	730	2058	2857	4205	851	-11.0	200	1	1	567.919	1	
58	0	570.850	0	460	1105	2857	4205	1001	-15.0	330	0	1	571.840	0	
59	1	583.074	0	460	1105	2857	4205	1001	-15.0	330	0	0	584.358	1	
60	0	592.449	0	460	1105	2857	4205	501	-9.0	459	0	0	594.058	1	
61	0	604.404	0	460	1105	2857	4205	651	-15.0	149	0	0	605.965	1	
62	0	614.080	0	730	2058	2857	4205	701	-11.0	263	1	1	614.742	1	
63	0	619.837	0	730	2058	2857	4205	601	-17.0	263	1	1	620.857	1	
64	0	625.154	0	730	2058	2857	4205	551	-11.0	149	1	1	626.819	1	
65	0	640.084	1	460	1105	2857	4205	901	-15.0	459	0	0	644.828	1	
66	0	655.060	1	460	1105	2857	4205	951	-15.0	330	0	0	658.855	1	
67	0	667.050	0	730	2058	2857	4205	801	-11.0	200	1	0	670.475	0	
68	1	680.969	0	730	2058	2857	4205	801	-11.0	200	1	0	682.516	0	
69	1	691.318	0	730	2058	2857	4205	801	-11.0	200	1	1	692.474	1	
70	0	695.050	0	730	2058	2857	4205	651	-17.0	200	1	1	696.533	1	
71	0	699.194	0	730	2058	2857	4205	501	-17.0	263	1	1	700.564	1	
72	0	714.159	0	460	1105	2857	4205	851	-9.0	459	0	1	715.812	0	
73	1	725.955	0	460	1105	2857	4205	851	-9.0	459	0	0	727.702	1	
74	0	735.962	0	730	2058	2857	4205	951	-17.0	330	1	1	737.535	1	
75	0	740.453	0	460	1105	2857	4205	1001	-9.0	149	0	0	741.654	1	
76	0	751.922	0	460	1105	2857	4205	601	-15.0	200	0	0	754.006	1	
77	0	762.188	0	730	2058	2857	4205	901	-17.0	330	1	1	762.935	1	
78	0	770.049	0	460	1105	2857	4205	551	-15.0	149	0	0	771.350	1	
79	0	782.376	0	460	1105	2857	4205	751	-9.0	459	0	0	783.792	1	
80	0	791.829	0	730	2058	2857	4205	801	-17.0	263	1	1	792.846	1	
81	0	800.357	0	730	2058	2857	4205	801	-17.0	459	1	1	801.202	1	
82	0	809.110	0	730	2058	2857	4205	851	-11.0	330	1	1	810.325	1	
83	0	815.604	0	460	1105	2857	4205	751	-9.0	263	0	0	816.864	1	
84	0	825.967	0	460	1105	2857	4205	501	-9.0	149	0	0	827.623	1	
85	0	836.825	0	730	2058	2857	4205	1001	-17.0	200	1	1	837.827	1	
86	0	849.449	0	460	1105	2857	4205	901	-9.0	330	0	0	850.269	1	
87	0	862.140	0	460	1105	2857	4205	951	-9.0	149	0	0	863.498	1	
88	0	872.837	0	460	1105	2857	4205	551	-9.0	459	0	0	874.253	1	
89	0	883.612	1	730	2058	2857	4205	601	-17.0	200	1	0	887.392	0	
90	1	894.161	0	730	2058	2857	4205	601	-17.0	200	1	1	895.599	1	
91	0	898.813	0	730	2058	2857	4205	651	-17.0	263	1	1	900.644	1	
92	0	907.894	0	460	1105	2857	4205	701	-15.0	149	0	0	910.020	1	
93	0	918.265	0	730	2058	2857	4205	551	-17.0	263	1	1	919.590	1	
94	0	932.939	0	730	2058	2857	4205	651	-17.0	459	1	1	934.184	1	
95	0	937.770	0	730	2058	2857	4205	501	-11.0	200	1	1	939.070	1	
96	0	945.647	0	460	1105	2857	4205	851	-9.0	330	0	0	947.063	1	
97	0	957.822	0	730	2058	2857	4205	801	-11.0	330	1	0	960.068	0	
98	1	975.317	0	730	2058	2857	4205	801	-11.0	330	1	1	976.946	1	
99	0	982.661	0	460	1105	2857	4205	1001	-9.0	149	0	0	984.061	1	
100	0	993.708	0	730	2058	2857	4205	751	-11.0	200	1	1	994.775	1	
101	0	1001.122	0	460	1105	2857	4205	901	-15.0	263	0	0	1002.408	1	
102	0	1012.673	0	460	1105	2857	4205	601	-15.0	459	0	0	1014.547	1	
103	0	1024.281	0	730	2058	2857	4205	501	-17.0	149	1	1	1025.713	1	
104	0	1032.551	0	730	2058	2857	4205	901	-17.0	200	1	0	1034.070	0	
105	1	1043.697	0	730	2058	2857	4205	901	-17.0	200	1	1	1044.751	1	
106	0	1048.031	0	460	1105	2857	4205	601	-9.0	263	0	0	1049.865	1	
107	0	1059.405	0	730	2058	2857	4205	801	-17.0	459	1	1	1060.515	1	
108	0	1064.586	1	460	1105	2857	4205	701	-9.0	330	0	1	1069.192	0	
109	1	1077.955	0	460	1105	2857	4205	701	-9.0	330	0	0	1080.403	1	
110	0	1089.097	0	460	1105	2857	4205	651	-15.0	330	0	0	1091.257	1	
111	0	1101.812	0	460	1105	2857	4205	751	-9.0	263	0	0	1102.979	1	
112	0	1112.207	0	460	1105	2857	4205	951	-9.0	200	0	0	1113.909	1	
113	0	1123.951	1	730	2058	2857	4205	851	-17.0	149	1	0	1128.362	0	
114	1	1135.717	0	730	2058	2857	4205	851	-17.0	149	1	1	1136.910	1	
115	0	1139.900	0	730	2058	2857	4205	551	-17.0	459	1	1	1141.626	1	
116	0	1144.162	0	460	1105	2857	4205	501	-15.0	459	0	0	1146.247	1	
117	0	1154.306	0	460	1105	2857	4205	701	-9.0	263	0	0	1156.238	1	
118	0	1166.807	0	730	2058	2857	4205	651	-11.0	330	1	0	1168.582	0	
119	1	1184.174	0	730	2058	2857	4205	651	-11.0	330	1	1	1185.648	1	
120	0	1190.135	0	730	2058	2857	4205	751	-17.0	200	1	1	1191.335	1	
121	0	1195.009	0	460	1105	2857	4205	951	-15.0	149	0	0	1196.279	1	
122	0	1207.660	0	730	2058	2857	4205	1001	-11.0	330	1	0	1210.156	0	
123	1	1224.623	0	730	2058	2857	4205	1001	-11.0	330	1	0	1226.429	0	
124	1	1238.696	0	730	2058	2857	4205	1001	-11.0	330	1	0	1240.687	0	
125	1	1248.436	0	730	2058	2857	4205	1001	-11.0	330	1	1	1249.494	1	
126	0	1250.853	0	730	2058	2857	4205	601	-11.0	459	1	1	1252.257	1	
127	0	1254.746	0	730	2058	2857	4205	801	-11.0	200	1	1	1255.798	1	
128	0	1267.851	0	460	1105	2857	4205	551	-15.0	263	0	0	1269.794	1	
129	0	1274.127	0	460	1105	2857	4205	851	-15.0	149	0	0	1275.663	1	
130	0	1287.270	0	730	2058	2857	4205	551	-11.0	149	1	1	1288.550	1	
131	0	1294.740	0	460	1105	2857	4205	501	-15.0	459	0	0	1296.198	1	
132	0	1306.800	0	730	2058	2857	4205	1001	-11.0	263	1	1	1307.625	1	
133	0	1315.795	0	730	2058	2857	4205	901	-11.0	330	1	0	1317.335	0	
134	1	1325.617	0	730	2058	2857	4205	901	-11.0	330	1	1	1326.806	1	
135	0	1329.705	0	460	1105	2857	4205	951	-9.0	200	0	0	1331.021	1	
136	0	1339.949	0	460	1105	2857	4205	701	-15.0	200	0	0	1342.277	1	
137	0	1353.496	0	460	1105	2857	4205	801	-15.0	149	0	1	1354.622	0	
138	1	1360.687	0	460	1105	2857	4205	801	-15.0	149	0	0	1362.226	1	
139	0	1372.797	0	730	2058	2857	4205	851	-17.0	330	1	1	1374.688	1	
140	0	1376.557	0	730	2058	2857	4205	651	-17.0	459	1	1	1377.888	1	
141	0	1380.949	0	460	1105	2857	4205	601	-9.0	263	0	0	1382.672	1	
142	0	1389.844	0	730	2058	2857	4205	601	-17.0	200	1	1	1391.129	1	
143	0	1423.865	0	730	2058	2857	4205	501	-11.0	263	1	0	1425.280	0	
144	1	1432.956	0	730	2058	2857	4205	501	-11.0	263	1	0	1435.274	0	
