Trial	CorrectionTrial?	StartTime	CenterReward?	F1	F2	F3	F4	HoldTime	Atten	Pitch	Side	Response	RespTime	Correct	
1	0	12.6654	0	730	2058	2857	4205	1001	-10.0	459	1	1	13.5622	1	
2	0	25.7318	0	460	1105	2857	4205	951	-10.0	149	0	0	30.7674	1	
3	0	38.6774	0	730	2058	2857	4205	901	-10.0	330	1	0	40.3642	0	
4	1	98.0411	0	730	2058	2857	4205	901	-10.0	330	1	1	99.0341	1	
5	0	109.5196	0	730	2058	2857	4205	801	-10.0	263	1	1	110.9025	1	
6	0	117.9606	0	460	1105	2857	4205	851	-10.0	200	0	0	119.0269	1	
7	0	128.3220	0	730	2058	2857	4205	651	-10.0	263	1	1	129.3872	1	
8	0	141.7679	0	730	2058	2857	4205	751	-10.0	459	1	1	142.3875	1	
9	0	160.9991	0	460	1105	2857	4205	601	-10.0	330	0	0	161.7739	1	
10	0	173.9427	0	460	1105	2857	4205	551	-10.0	149	0	0	175.7420	1	
11	0	185.8755	0	460	1105	2857	4205	501	-10.0	200	0	0	186.9635	1	
12	0	204.9534	0	730	2058	2857	4205	801	-10.0	200	1	1	205.7273	1	
13	0	212.5830	0	460	1105	2857	4205	651	-10.0	149	0	0	213.8760	1	
14	0	224.0833	1	460	1105	2857	4205	901	-10.0	459	0	0	228.6792	1	
15	0	245.0779	0	730	2058	2857	4205	551	-10.0	263	1	1	246.4292	1	
16	0	252.1507	0	730	2058	2857	4205	1001	-10.0	330	1	1	254.1122	1	
17	0	264.6355	0	460	1105	2857	4205	601	-10.0	263	0	0	265.3802	1	
18	0	278.1362	0	460	1105	2857	4205	701	-10.0	200	0	0	279.6295	1	
19	0	295.2952	0	460	1105	2857	4205	501	-10.0	149	0	1	296.0188	0	
20	1	306.6529	0	460	1105	2857	4205	501	-10.0	149	0	0	308.0188	1	
21	0	322.8298	0	730	2058	2857	4205	951	-10.0	459	1	1	324.2307	1	
22	0	330.6682	0	730	2058	2857	4205	751	-10.0	330	1	1	331.4624	1	
23	0	340.0248	0	460	1105	2857	4205	851	-10.0	330	0	0	341.4571	1	
24	0	361.1803	1	460	1105	2857	4205	501	-10.0	200	0	1	364.8794	0	
25	1	371.3689	0	460	1105	2857	4205	501	-10.0	200	0	0	373.7828	1	
26	0	392.2890	0	730	2058	2857	4205	1001	-10.0	149	1	1	392.9213	1	
27	0	402.4895	0	730	2058	2857	4205	801	-10.0	459	1	1	403.1478	1	
28	0	408.7580	0	730	2058	2857	4205	601	-10.0	263	1	1	410.3820	1	
29	0	425.7368	1	460	1105	2857	4205	751	-10.0	200	0	0	436.8070	1	
30	0	447.7923	0	730	2058	2857	4205	651	-10.0	263	1	1	449.2475	1	
31	0	455.6243	1	730	2058	2857	4205	901	-10.0	149	1	1	456.2978	1	
32	0	466.3208	0	460	1105	2857	4205	701	-10.0	330	0	1	470.8244	0	
33	1	478.9016	0	460	1105	2857	4205	701	-10.0	330	0	0	480.5317	1	
34	0	485.0931	0	460	1105	2857	4205	551	-10.0	459	0	0	486.7818	1	
35	0	494.0911	0	730	2058	2857	4205	1001	-10.0	149	1	1	494.7572	1	
36	0	504.8602	0	730	2058	2857	4205	751	-10.0	459	1	1	505.9067	1	
37	0	520.8010	0	460	1105	2857	4205	951	-10.0	330	0	1	521.7828	0	
38	1	539.7473	0	460	1105	2857	4205	951	-10.0	330	0	0	540.5373	1	
39	0	553.7127	0	730	2058	2857	4205	801	-10.0	263	1	1	554.8751	1	
40	0	572.1909	0	460	1105	2857	4205	551	-10.0	200	0	0	573.9323	1	
41	0	588.8281	0	730	2058	2857	4205	701	-10.0	263	1	1	589.8813	1	
42	0	599.9820	0	460	1105	2857	4205	851	-10.0	459	0	1	601.2915	0	
43	1	622.0197	0	460	1105	2857	4205	851	-10.0	459	0	0	623.0807	1	
44	0	633.3595	0	730	2058	2857	4205	901	-10.0	330	1	1	634.3096	1	
45	0	645.4215	0	460	1105	2857	4205	501	-10.0	200	0	0	647.1717	1	
46	0	662.6888	0	460	1105	2857	4205	651	-10.0	149	0	1	664.8983	0	
47	1	673.7476	0	460	1105	2857	4205	651	-10.0	149	0	1	674.8110	0	
48	1	681.0325	0	460	1105	2857	4205	651	-10.0	149	0	1	682.1825	0	
49	1	694.7000	0	460	1105	2857	4205	651	-10.0	149	0	1	696.3391	0	
50	1	708.7182	0	460	1105	2857	4205	651	-10.0	149	0	0	710.0648	1	
51	0	719.3265	0	730	2058	2857	4205	751	-10.0	459	1	1	720.1498	1	
52	0	731.4711	0	730	2058	2857	4205	901	-10.0	330	1	1	732.0988	1	
53	0	739.5837	0	460	1105	2857	4205	1001	-10.0	263	0	1	740.1651	0	
54	1	746.7870	0	460	1105	2857	4205	1001	-10.0	263	0	0	748.2910	1	
55	0	759.4960	0	460	1105	2857	4205	601	-10.0	200	0	0	761.6532	1	
56	0	770.4121	0	730	2058	2857	4205	801	-10.0	149	1	1	771.5110	1	
57	0	781.9351	0	460	1105	2857	4205	951	-10.0	459	0	0	783.2613	1	
58	0	793.0796	1	730	2058	2857	4205	701	-10.0	263	1	0	797.5411	0	
59	1	807.3664	0	730	2058	2857	4205	701	-10.0	263	1	1	808.1079	1	
60	0	813.6119	0	460	1105	2857	4205	551	-10.0	330	0	1	815.1492	0	
61	1	821.2392	0	460	1105	2857	4205	551	-10.0	330	0	0	822.3892	1	
62	0	830.2880	0	460	1105	2857	4205	501	-10.0	149	0	1	833.4947	0	
63	1	842.0644	0	460	1105	2857	4205	501	-10.0	149	0	1	843.3263	0	
64	1	860.8614	0	460	1105	2857	4205	501	-10.0	149	0	0	862.4989	1	
65	0	872.1226	0	730	2058	2857	4205	651	-10.0	200	1	1	874.0296	1	
66	0	879.2161	0	730	2058	2857	4205	551	-10.0	200	1	1	880.5613	1	
67	0	896.3199	0	460	1105	2857	4205	701	-10.0	263	0	0	900.9695	1	
68	0	908.1283	0	730	2058	2857	4205	1001	-10.0	459	1	1	909.4315	1	
69	0	913.8028	0	460	1105	2857	4205	901	-10.0	149	0	0	915.4248	1	
70	0	927.0673	0	730	2058	2857	4205	751	-10.0	330	1	0	928.7728	0	
71	1	936.9342	0	730	2058	2857	4205	751	-10.0	330	1	1	938.5124	1	
72	0	948.5636	0	730	2058	2857	4205	601	-10.0	330	1	1	950.0463	1	
73	0	955.5548	0	460	1105	2857	4205	501	-10.0	149	0	0	958.7427	1	
74	0	970.8788	0	730	2058	2857	4205	801	-10.0	200	1	1	971.9295	1	
75	0	991.4089	0	460	1105	2857	4205	851	-10.0	459	0	0	992.8992	1	
76	0	1011.4074	0	460	1105	2857	4205	951	-10.0	263	0	1	1012.1766	0	
77	1	1019.3605	0	460	1105	2857	4205	951	-10.0	263	0	0	1021.1283	1	
78	0	1032.8705	0	460	1105	2857	4205	501	-10.0	459	0	0	1034.2204	1	
79	0	1044.9818	0	730	2058	2857	4205	701	-10.0	149	1	1	1046.0801	1	
80	0	1050.7578	0	460	1105	2857	4205	801	-10.0	200	0	0	1052.0602	1	
81	0	1064.0619	0	730	2058	2857	4205	651	-10.0	263	1	1	1064.8960	1	
82	0	1073.4934	0	460	1105	2857	4205	1001	-10.0	330	0	1	1074.2577	0	
83	1	1085.2638	1	460	1105	2857	4205	1001	-10.0	330	0	1	1089.2186	0	
84	1	1095.3055	0	460	1105	2857	4205	1001	-10.0	330	0	0	1097.7750	1	
85	0	1112.0727	0	730	2058	2857	4205	901	-10.0	263	1	1	1113.6741	1	
86	0	1122.3653	0	460	1105	2857	4205	951	-10.0	459	0	0	1124.0387	1	
87	0	1134.3402	0	730	2058	2857	4205	601	-10.0	149	1	1	1135.5051	1	
88	0	1149.8902	0	460	1105	2857	4205	851	-10.0	330	0	0	1151.2525	1	
89	0	1161.1919	0	730	2058	2857	4205	551	-10.0	200	1	1	1162.4461	1	
90	0	1167.0222	0	730	2058	2857	4205	851	-10.0	200	1	1	1168.4866	1	
91	0	1177.1062	0	730	2058	2857	4205	801	-10.0	263	1	1	1178.4311	1	
92	0	1186.9739	0	460	1105	2857	4205	901	-10.0	459	0	1	1188.1769	0	
93	1	1198.8831	0	460	1105	2857	4205	901	-10.0	459	0	0	1200.1875	1	
94	0	1217.1815	0	730	2058	2857	4205	1001	-10.0	149	1	1	1218.6459	1	
95	0	1232.2449	0	730	2058	2857	4205	951	-10.0	330	1	1	1232.8160	1	
96	0	1253.8657	0	460	1105	2857	4205	701	-10.0	149	0	0	1255.2344	1	
97	0	1273.4816	0	460	1105	2857	4205	751	-10.0	330	0	0	1274.5963	1	
98	0	1285.7935	0	460	1105	2857	4205	551	-10.0	200	0	0	1287.6580	1	
99	0	1298.3953	1	460	1105	2857	4205	601	-10.0	459	0	0	1304.4905	1	
100	0	1321.8179	0	730	2058	2857	4205	501	-10.0	263	1	1	1323.9762	1	
101	0	1328.8725	0	730	2058	2857	4205	1001	-10.0	149	1	1	1329.6548	1	
102	0	1339.5206	0	730	2058	2857	4205	501	-10.0	330	1	1	1341.2418	1	
103	0	1352.2248	0	460	1105	2857	4205	901	-10.0	459	0	0	1353.5063	1	
104	0	1363.1132	1	460	1105	2857	4205	601	-10.0	263	0	0	1367.4616	1	
105	0	1379.3470	0	730	2058	2857	4205	701	-10.0	200	1	1	1380.7595	1	
106	0	1387.9230	0	460	1105	2857	4205	651	-10.0	459	0	1	1389.4368	0	
107	1	1397.7911	1	460	1105	2857	4205	651	-10.0	459	0	0	1404.6082	1	
108	0	1413.4419	0	460	1105	2857	4205	801	-10.0	330	0	1	1415.2276	0	
109	1	1425.6289	0	460	1105	2857	4205	801	-10.0	330	0	1	1426.9720	0	
110	1	1435.0328	0	460	1105	2857	4205	801	-10.0	330	0	0	1436.6351	1	
111	0	1446.6602	0	730	2058	2857	4205	751	-10.0	149	1	1	1447.5538	1	
112	0	1455.7538	0	460	1105	2857	4205	951	-10.0	200	0	0	1457.0933	1	
113	0	1468.5505	0	730	2058	2857	4205	851	-10.0	263	1	1	1469.3301	1	
114	0	1486.7718	0	730	2058	2857	4205	551	-10.0	200	1	1	1487.9773	1	
115	0	1490.9565	0	730	2058	2857	4205	501	-10.0	263	1	1	1492.0874	1	
116	0	1498.4636	0	460	1105	2857	4205	801	-10.0	459	0	0	1499.3795	1	
117	0	1517.1140	0	730	2058	2857	4205	651	-10.0	330	1	1	1518.2337	1	
118	0	1533.1639	0	460	1105	2857	4205	851	-10.0	149	0	0	1534.7853	1	
119	0	1550.8755	0	460	1105	2857	4205	701	-10.0	263	0	0	1553.2384	1	
120	0	1561.8102	0	460	1105	2857	4205	951	-10.0	459	0	0	1563.6690	1	
121	0	1574.4896	0	730	2058	2857	4205	601	-10.0	200	1	1	1576.8224	1	
122	0	1579.9699	0	730	2058	2857	4205	901	-10.0	149	1	1	1581.3932	1	
123	0	1590.4981	0	460	1105	2857	4205	751	-10.0	330	0	1	1591.6655	0	
124	1	1599.7223	0	460	1105	2857	4205	751	-10.0	330	0	0	1601.3671	1	
125	0	1610.9244	0	460	1105	2857	4205	501	-10.0	263	0	0	1612.7944	1	
126	0	1628.9512	0	730	2058	2857	4205	651	-10.0	459	1	1	1629.8744	1	
127	0	1647.2914	1	730	2058	2857	4205	601	-10.0	200	1	1	1651.8134	1	
128	0	1659.1236	0	460	1105	2857	4205	551	-10.0	330	0	1	1661.9766	0	
129	1	1671.0561	0	460	1105	2857	4205	551	-10.0	330	0	0	1672.4325	1	
130	0	1682.8110	0	730	2058	2857	4205	851	-10.0	149	1	1	1683.8281	1	
131	0	1690.3981	0	460	1105	2857	4205	751	-10.0	459	0	1	1692.2513	0	
132	1	1723.2295	0	460	1105	2857	4205	751	-10.0	459	0	0	1724.7491	1	
133	0	1731.6713	0	730	2058	2857	4205	951	-10.0	200	1	1	1733.2870	1	
134	0	1740.9335	0	460	1105	2857	4205	701	-10.0	330	0	1	1742.4872	0	
