Trial	CorrectionTrial?	StartTime	CenterReward?	F1	F2	F3	F4	HoldTime	Atten	Pitch	Side	Response	RespTime	Correct	
1	0	12.0832	0	730	2058	2857	4205	551	-14.0	200	1	1	13.0082	1	
2	0	18.6155	0	460	1105	2857	4205	951	-12.0	149	0	0	25.7413	1	
3	0	31.8290	0	730	2058	2857	4205	751	-14.0	330	1	1	32.3931	1	
4	0	37.1280	0	730	2058	2857	4205	801	-14.0	459	1	1	38.1472	1	
5	0	42.5208	0	460	1105	2857	4205	501	-12.0	263	0	0	44.5260	1	
6	0	50.5750	1	730	2058	2857	4205	851	-14.0	263	1	0	51.1192	0	
7	1	59.8482	0	730	2058	2857	4205	851	-14.0	263	1	1	63.3906	1	
8	0	67.6415	0	730	2058	2857	4205	601	-14.0	200	1	1	69.0553	1	
9	0	73.4343	0	460	1105	2857	4205	1001	-12.0	149	0	0	76.6871	1	
10	0	81.2965	0	579	1508	2857	4205	501	-12.0	200	-1	1	82.2324	-1	
11	0	86.5455	0	460	1105	2857	4205	701	-12.0	330	0	0	89.0315	1	
12	0	94.2006	0	460	1105	2857	4205	751	-12.0	330	0	0	95.8454	1	
13	0	101.3469	1	730	2058	2857	4205	651	-14.0	149	1	1	102.2724	1	
14	0	106.6490	0	460	1105	2857	4205	1001	-12.0	263	0	1	110.1040	0	
15	1	118.6460	0	460	1105	2857	4205	1001	-12.0	263	0	0	119.9762	1	
16	0	125.1265	0	460	1105	2857	4205	901	-12.0	459	0	0	128.3426	1	
17	0	136.3230	1	730	2058	2857	4205	951	-14.0	200	1	1	136.9964	1	
18	0	140.5204	0	730	2058	2857	4205	501	-14.0	263	1	1	143.0605	1	
19	0	147.3317	0	460	1105	2857	4205	601	-12.0	459	0	0	150.1539	1	
20	0	156.6953	0	730	2058	2857	4205	701	-14.0	149	1	1	157.5304	1	
21	0	161.3671	0	460	1105	2857	4205	551	-12.0	200	0	1	162.7832	0	
22	1	178.7124	0	460	1105	2857	4205	551	-12.0	200	0	0	180.0616	1	
23	0	184.5258	0	579	1508	2857	4205	501	-12.0	200	-1	0	185.8930	-1	
24	0	191.2261	0	460	1105	2857	4205	701	-12.0	200	0	0	192.7670	1	
25	0	198.4780	0	730	2058	2857	4205	951	-14.0	330	1	1	198.8541	1	
26	0	204.0370	0	460	1105	2857	4205	1001	-12.0	263	0	0	206.3250	1	
27	0	211.8437	0	460	1105	2857	4205	801	-12.0	459	0	0	213.6516	1	
28	0	220.1151	1	579	1508	2857	4205	501	-12.0	200	-1	1	221.5767	-1	
29	0	225.4885	0	730	2058	2857	4205	551	-14.0	459	1	1	230.3038	1	
30	0	234.0307	0	730	2058	2857	4205	601	-14.0	263	1	1	234.9596	1	
31	0	239.8428	0	460	1105	2857	4205	501	-12.0	200	0	0	241.7334	1	
32	0	247.4898	0	730	2058	2857	4205	651	-14.0	149	1	1	248.8670	1	
33	0	252.6792	0	730	2058	2857	4205	751	-14.0	330	1	1	253.7339	1	
34	0	259.6771	0	730	2058	2857	4205	901	-14.0	459	1	1	261.7374	1	
35	0	265.6180	0	460	1105	2857	4205	751	-12.0	330	0	0	266.2225	1	
36	0	271.9558	0	460	1105	2857	4205	551	-12.0	263	0	0	273.3792	1	
37	0	278.8991	0	460	1105	2857	4205	651	-12.0	200	0	0	280.5638	1	
38	0	286.3369	1	460	1105	2857	4205	601	-12.0	149	0	0	288.1494	1	
39	0	293.6875	0	730	2058	2857	4205	851	-14.0	263	1	1	297.1416	1	
40	0	302.6464	0	730	2058	2857	4205	801	-14.0	200	1	1	303.6451	1	
41	0	311.4267	0	730	2058	2857	4205	1001	-14.0	459	1	1	312.2025	1	
42	0	316.5243	0	460	1105	2857	4205	701	-12.0	330	0	0	319.3869	1	
43	0	324.9079	0	579	1508	2857	4205	501	-12.0	200	-1	0	327.4554	-1	
44	0	333.1659	1	730	2058	2857	4205	551	-14.0	263	1	1	337.6801	1	
45	0	341.2679	0	460	1105	2857	4205	601	-12.0	200	0	0	342.4838	1	
46	0	349.0615	0	460	1105	2857	4205	1001	-12.0	149	0	0	351.3856	1	
47	0	357.3639	0	730	2058	2857	4205	651	-14.0	459	1	1	358.1842	1	
48	0	361.6196	0	730	2058	2857	4205	751	-14.0	330	1	1	362.6474	1	
49	0	372.1589	0	730	2058	2857	4205	901	-14.0	330	1	0	372.8883	0	
50	1	382.3070	0	730	2058	2857	4205	901	-14.0	330	1	1	383.3541	1	
51	0	386.2538	0	730	2058	2857	4205	501	-14.0	200	1	1	388.0410	1	
52	0	392.5891	0	730	2058	2857	4205	801	-14.0	149	1	1	393.3806	1	
53	0	398.3934	0	460	1105	2857	4205	701	-12.0	263	0	0	400.1638	1	
54	0	408.0420	0	460	1105	2857	4205	951	-12.0	459	0	0	410.0787	1	
55	0	416.4906	0	460	1105	2857	4205	1001	-12.0	330	0	0	418.8862	1	
56	0	425.1270	0	730	2058	2857	4205	601	-14.0	200	1	1	426.2202	1	
57	0	429.6890	0	460	1105	2857	4205	551	-12.0	459	0	1	431.0430	0	
58	1	439.6077	0	460	1105	2857	4205	551	-12.0	459	0	0	440.7158	1	
59	0	447.0109	0	460	1105	2857	4205	751	-12.0	263	0	0	448.7510	1	
60	0	454.3544	0	579	1508	2857	4205	501	-12.0	200	-1	0	456.8984	-1	
61	0	462.5648	0	730	2058	2857	4205	651	-14.0	330	1	1	463.1188	1	
62	0	466.9228	0	460	1105	2857	4205	851	-12.0	149	0	0	467.9118	1	
63	0	473.3674	0	460	1105	2857	4205	501	-12.0	459	0	0	475.2294	1	
64	0	481.8074	0	460	1105	2857	4205	801	-12.0	263	0	0	483.5020	1	
65	0	489.7947	0	579	1508	2857	4205	501	-12.0	200	-1	1	490.7672	-1	
66	0	494.0571	0	460	1105	2857	4205	501	-12.0	330	0	0	495.7064	1	
67	0	501.1876	0	730	2058	2857	4205	651	-14.0	459	1	1	502.4603	1	
68	0	505.6955	1	460	1105	2857	4205	701	-12.0	200	0	1	508.7733	0	
69	1	514.9482	0	460	1105	2857	4205	701	-12.0	200	0	0	517.1317	1	
70	0	522.3942	0	730	2058	2857	4205	851	-14.0	263	1	1	523.4463	1	
71	0	527.1631	1	730	2058	2857	4205	951	-14.0	149	1	1	527.8838	1	
72	0	532.2703	0	730	2058	2857	4205	551	-14.0	149	1	1	535.9376	1	
73	0	539.0195	0	730	2058	2857	4205	601	-14.0	330	1	1	542.6201	1	
74	0	552.6892	0	730	2058	2857	4205	901	-14.0	459	1	1	553.5316	1	
75	0	556.9836	0	460	1105	2857	4205	751	-12.0	200	0	0	559.2572	1	
76	0	564.9206	0	460	1105	2857	4205	801	-12.0	263	0	0	566.2441	1	
77	0	572.3981	0	579	1508	2857	4205	501	-12.0	200	-1	1	573.3288	-1	
78	0	576.9756	0	460	1105	2857	4205	701	-12.0	263	0	0	593.7479	1	
79	0	598.6066	0	460	1105	2857	4205	651	-12.0	200	0	0	599.7607	1	
80	0	613.1819	0	460	1105	2857	4205	851	-12.0	459	0	1	613.8427	0	
81	1	620.8595	0	460	1105	2857	4205	851	-12.0	459	0	0	621.8507	1	
82	0	639.0124	0	730	2058	2857	4205	1001	-14.0	149	1	1	639.7175	1	
83	0	642.9795	1	730	2058	2857	4205	951	-14.0	149	1	1	643.7275	1	
84	0	647.1667	0	730	2058	2857	4205	751	-14.0	263	1	1	648.8248	1	
85	0	651.7293	1	460	1105	2857	4205	801	-12.0	200	0	1	656.1661	0	
86	1	677.9582	0	460	1105	2857	4205	801	-12.0	200	0	1	682.4514	0	
87	1	715.6844	0	460	1105	2857	4205	801	-12.0	200	0	0	719.5175	1	
88	0	723.2001	0	579	1508	2857	4205	501	-12.0	200	-1	1	725.0863	-1	
89	0	728.3356	0	730	2058	2857	4205	501	-14.0	330	1	1	729.2116	1	
