Trial	CorrectionTrial?	StartTime	CenterReward?	F1	F2	F3	F4	HoldTime	Atten	Pitch	Side	Response	RespTime	Correct	
1	0	3.2539	0	460	1105	2857	4205	851	-12.0	330	0	1	5.1127	0	
2	1	12.5183	0	460	1105	2857	4205	851	-12.0	330	0	0	15.8418	1	
3	0	22.5937	0	460	1105	2857	4205	751	-12.0	149	0	0	24.0306	1	
4	0	33.7510	0	730	2058	2857	4205	501	-14.0	200	1	1	34.6008	1	
5	0	37.3923	0	460	1105	2857	4205	601	-12.0	263	0	1	38.2655	0	
6	1	48.0293	0	460	1105	2857	4205	601	-12.0	263	0	0	51.0780	1	
7	0	60.0594	0	730	2058	2857	4205	801	-14.0	459	1	1	60.7318	1	
8	0	64.2813	1	460	1105	2857	4205	551	-12.0	459	0	0	68.2220	1	
9	0	74.5797	0	730	2058	2857	4205	701	-14.0	330	1	1	75.9255	1	
10	0	78.4776	1	730	2058	2857	4205	651	-14.0	200	1	0	82.7298	0	
11	1	90.7389	0	730	2058	2857	4205	651	-14.0	200	1	1	91.5764	1	
12	0	94.3369	1	460	1105	2857	4205	951	-12.0	263	0	0	96.7625	1	
13	0	103.8660	0	730	2058	2857	4205	1001	-14.0	149	1	1	104.6278	1	
14	0	108.0281	0	460	1105	2857	4205	551	-12.0	459	0	0	109.5108	1	
15	0	117.3822	0	460	1105	2857	4205	1001	-12.0	263	0	0	118.6912	1	
16	0	126.0658	0	730	2058	2857	4205	851	-14.0	330	1	1	127.1861	1	
17	0	133.7834	0	730	2058	2857	4205	601	-14.0	200	1	0	136.2922	0	
18	1	142.3154	0	730	2058	2857	4205	601	-14.0	200	1	1	143.6297	1	
19	0	149.1943	0	730	2058	2857	4205	651	-14.0	149	1	1	150.2567	1	
20	0	154.4882	1	460	1105	2857	4205	801	-12.0	263	0	0	155.6566	1	
21	0	164.0710	0	730	2058	2857	4205	901	-14.0	330	1	1	165.2402	1	
22	0	168.6687	0	460	1105	2857	4205	701	-12.0	459	0	0	169.9690	1	
23	0	177.1431	0	730	2058	2857	4205	951	-14.0	200	1	0	179.6991	0	
24	1	190.6665	0	730	2058	2857	4205	951	-14.0	200	1	1	191.8316	1	
25	0	196.6765	0	460	1105	2857	4205	751	-12.0	149	0	0	197.6538	1	
26	0	205.3246	0	730	2058	2857	4205	651	-14.0	200	1	1	206.4687	1	
27	0	212.4130	0	460	1105	2857	4205	901	-12.0	149	0	0	214.2655	1	
28	0	228.5922	0	730	2058	2857	4205	701	-14.0	330	1	1	229.6992	1	
29	0	233.7463	0	730	2058	2857	4205	851	-14.0	459	1	1	234.8111	1	
30	0	237.7443	0	460	1105	2857	4205	501	-12.0	263	0	0	240.1968	1	
31	0	248.2543	0	460	1105	2857	4205	801	-12.0	263	0	0	250.2328	1	
32	0	257.3344	0	730	2058	2857	4205	601	-14.0	330	1	0	258.9505	0	
33	1	268.5556	0	730	2058	2857	4205	601	-14.0	330	1	1	269.4967	1	
34	0	273.9762	0	730	2058	2857	4205	951	-14.0	459	1	1	274.9703	1	
35	0	280.0254	0	460	1105	2857	4205	751	-12.0	149	0	0	282.0812	1	
36	0	290.6364	0	460	1105	2857	4205	551	-12.0	200	0	0	292.1195	1	
37	0	300.0561	0	460	1105	2857	4205	1001	-12.0	200	0	0	303.1271	1	
38	0	310.6220	0	460	1105	2857	4205	801	-12.0	149	0	0	312.1894	1	
39	0	319.5382	0	730	2058	2857	4205	751	-14.0	330	1	1	320.4182	1	
40	0	324.5641	0	730	2058	2857	4205	951	-14.0	459	1	1	325.1740	1	
41	0	330.9898	0	730	2058	2857	4205	551	-14.0	263	1	1	331.8193	1	
42	0	338.9775	0	460	1105	2857	4205	601	-12.0	330	0	0	341.4268	1	
43	0	349.6780	0	460	1105	2857	4205	851	-12.0	459	0	0	351.1000	1	
44	0	357.0558	1	730	2058	2857	4205	701	-14.0	200	1	1	358.3932	1	
45	0	363.1879	0	730	2058	2857	4205	501	-14.0	149	1	1	364.8436	1	
46	0	370.0131	0	460	1105	2857	4205	651	-12.0	263	0	0	373.4858	1	
47	0	379.1613	1	460	1105	2857	4205	901	-12.0	459	0	0	384.3396	1	
48	0	392.2816	0	730	2058	2857	4205	651	-14.0	200	1	1	394.4232	1	
49	0	397.8165	0	460	1105	2857	4205	851	-12.0	263	0	0	403.9794	1	
50	0	412.4819	0	730	2058	2857	4205	701	-14.0	330	1	0	414.6711	0	
51	1	422.0859	0	730	2058	2857	4205	701	-14.0	330	1	1	423.1913	1	
52	0	431.4170	0	460	1105	2857	4205	601	-12.0	149	0	0	432.8662	1	
53	0	439.4833	0	460	1105	2857	4205	1001	-12.0	200	0	1	440.2567	0	
54	1	446.9551	0	460	1105	2857	4205	1001	-12.0	200	0	0	448.5647	1	
55	0	462.1254	0	460	1105	2857	4205	951	-12.0	330	0	1	462.7999	0	
56	1	483.4738	0	460	1105	2857	4205	951	-12.0	330	0	0	484.9905	1	
57	0	492.6642	0	730	2058	2857	4205	551	-14.0	263	1	1	493.8438	1	
58	0	499.2542	0	730	2058	2857	4205	501	-14.0	149	1	1	500.3450	1	
59	0	507.5558	0	730	2058	2857	4205	801	-14.0	459	1	1	508.3013	1	
60	0	514.1633	0	460	1105	2857	4205	801	-12.0	330	0	1	515.1872	0	
61	1	522.7653	0	460	1105	2857	4205	801	-12.0	330	0	0	524.3174	1	
62	0	538.8234	1	460	1105	2857	4205	1001	-12.0	263	0	0	540.6087	1	
63	0	546.6240	0	730	2058	2857	4205	701	-14.0	200	1	1	548.5961	1	
64	0	552.3463	0	730	2058	2857	4205	901	-14.0	459	1	1	553.4100	1	
65	0	558.8490	1	730	2058	2857	4205	501	-14.0	149	1	1	559.9811	1	
66	0	564.9344	0	460	1105	2857	4205	751	-12.0	200	0	0	567.5511	1	
67	0	573.0822	0	460	1105	2857	4205	851	-12.0	149	0	0	574.5642	1	
68	0	583.0626	0	730	2058	2857	4205	651	-14.0	459	1	1	583.6858	1	
69	0	588.6389	0	460	1105	2857	4205	951	-12.0	330	0	1	589.4833	0	
70	1	596.0685	0	460	1105	2857	4205	951	-12.0	330	0	0	597.9355	1	
71	0	605.9250	0	730	2058	2857	4205	551	-14.0	263	1	1	606.8071	1	
72	0	611.1282	0	730	2058	2857	4205	701	-14.0	330	1	1	612.2199	1	
73	0	618.1797	0	460	1105	2857	4205	1001	-12.0	459	0	1	618.9024	0	
74	1	626.1355	0	460	1105	2857	4205	1001	-12.0	459	0	0	626.9886	1	
75	0	633.8589	0	730	2058	2857	4205	951	-14.0	149	1	1	634.7687	1	
76	0	639.0145	0	460	1105	2857	4205	751	-12.0	200	0	0	640.0686	1	
77	0	647.3163	0	730	2058	2857	4205	901	-14.0	263	1	1	648.1655	1	
78	0	651.3906	0	730	2058	2857	4205	651	-14.0	459	1	1	652.8991	1	
79	0	656.9509	0	460	1105	2857	4205	551	-12.0	149	0	0	658.2249	1	
80	0	666.0463	0	460	1105	2857	4205	501	-12.0	263	0	0	667.2694	1	
81	0	675.5507	0	460	1105	2857	4205	601	-12.0	200	0	1	676.6193	0	
82	1	696.9015	1	460	1105	2857	4205	601	-12.0	200	0	0	698.8182	1	
83	0	705.3953	0	730	2058	2857	4205	851	-14.0	330	1	1	706.5971	1	
84	0	718.4154	1	730	2058	2857	4205	751	-14.0	459	1	1	719.3380	1	
85	0	723.1062	0	730	2058	2857	4205	501	-14.0	149	1	1	726.6754	1	
86	0	730.6814	0	460	1105	2857	4205	851	-12.0	200	0	1	731.7834	0	
87	1	759.7294	0	460	1105	2857	4205	851	-12.0	200	0	0	760.6011	1	
88	0	765.0892	0	460	1105	2857	4205	651	-12.0	263	0	1	766.7402	0	
89	1	789.8985	0	460	1105	2857	4205	651	-12.0	263	0	0	793.9169	1	
