Trial	CorrectionTrial?	StartTime	CenterReward?	F1	F2	F3	F4	HoldTime	Atten	Pitch	Side	Response	RespTime	Correct	
1	0	7.4605	1	460	1105	2857	4205	751	-4.5	200	1	1	8.2949	1	
2	0	15.9639	0	460	1105	2857	4205	951	0.0	200	1	1	16.6243	1	
3	0	23.4924	0	460	1105	2857	4205	651	-13.5	200	1	1	24.3991	1	
4	0	30.1629	0	730	2058	2857	4205	551	-20.0	200	0	1	32.2432	0	
5	1	38.8262	1	730	2058	2857	4205	551	-20.0	200	0	0	39.7011	1	
6	0	45.9859	0	730	2058	2857	4205	901	-20.0	200	0	0	47.5740	1	
7	0	52.9355	0	730	2058	2857	4205	701	-6.5	200	0	1	53.9231	0	
8	1	63.7735	0	730	2058	2857	4205	701	-6.5	200	0	0	64.8461	1	
9	0	69.6090	0	730	2058	2857	4205	801	-15.5	200	0	0	70.5244	1	
10	0	75.6118	0	730	2058	2857	4205	601	-11.0	200	0	0	76.3735	1	
11	0	81.9460	1	460	1105	2857	4205	1001	0.0	200	1	1	82.3029	1	
12	0	87.4578	0	460	1105	2857	4205	851	-13.5	200	1	0	91.7590	0	
13	1	99.1376	0	460	1105	2857	4205	851	-13.5	200	1	1	99.6441	1	
14	0	107.4571	1	730	2058	2857	4205	1001	-20.0	200	0	0	107.7464	1	
15	0	112.6692	0	460	1105	2857	4205	851	-9.0	200	1	0	116.4554	0	
16	1	122.9480	0	460	1105	2857	4205	851	-9.0	200	1	1	123.7287	1	
17	0	130.8334	0	460	1105	2857	4205	601	-18.0	200	1	1	131.9150	1	
18	0	135.6579	0	730	2058	2857	4205	751	-2.0	200	0	0	136.2738	1	
19	0	140.3501	0	460	1105	2857	4205	551	-13.5	200	1	1	141.2932	1	
20	0	144.9102	0	460	1105	2857	4205	951	-4.5	200	1	1	145.2341	1	
21	0	151.4296	0	730	2058	2857	4205	701	-20.0	200	0	0	152.0917	1	
22	0	159.2412	0	730	2058	2857	4205	901	-6.5	200	0	0	159.8433	1	
23	0	164.5826	0	730	2058	2857	4205	651	-15.5	200	0	0	164.9800	1	
24	0	169.2597	0	460	1105	2857	4205	801	0.0	200	1	1	169.5266	1	
25	0	174.4672	0	460	1105	2857	4205	951	-9.0	200	1	1	174.6996	1	
26	0	184.7781	0	730	2058	2857	4205	1001	-15.5	200	0	0	185.2279	1	
27	0	189.5856	0	460	1105	2857	4205	801	0.0	200	1	1	189.8173	1	
28	0	193.0224	0	730	2058	2857	4205	551	-20.0	200	0	0	193.6611	1	
29	0	198.2050	0	460	1105	2857	4205	751	-9.0	200	1	0	198.8555	0	
30	1	206.8168	0	460	1105	2857	4205	751	-9.0	200	1	0	207.5630	0	
31	1	214.0130	0	460	1105	2857	4205	751	-9.0	200	1	1	214.6513	1	
32	0	220.8240	0	730	2058	2857	4205	901	-2.0	200	0	0	222.0976	1	
33	0	226.8459	0	460	1105	2857	4205	701	-18.0	200	1	1	227.2554	1	
34	0	231.0635	0	730	2058	2857	4205	601	-6.5	200	0	0	231.6633	1	
35	0	235.8981	0	730	2058	2857	4205	651	-11.0	200	0	0	236.3139	1	
36	0	244.8827	0	460	1105	2857	4205	851	0.0	200	1	1	245.4806	1	
37	0	250.0013	0	730	2058	2857	4205	551	-20.0	200	0	0	250.6258	1	
38	0	257.3046	0	460	1105	2857	4205	951	-4.5	200	1	1	257.8673	1	
39	0	261.5017	1	730	2058	2857	4205	751	-15.5	200	0	0	262.0623	1	
40	0	266.5453	1	460	1105	2857	4205	1001	-18.0	200	1	0	270.6905	0	
41	1	278.0072	0	460	1105	2857	4205	1001	-18.0	200	1	1	278.7001	1	
42	0	282.0752	0	460	1105	2857	4205	501	-9.0	200	1	1	282.9540	1	
43	0	288.8527	0	730	2058	2857	4205	651	-2.0	200	0	0	289.7177	1	
44	0	293.7434	0	730	2058	2857	4205	601	-20.0	200	0	0	294.3518	1	
45	0	298.5186	0	460	1105	2857	4205	701	-4.5	200	1	1	299.1256	1	
46	0	303.6242	0	730	2058	2857	4205	851	-2.0	200	0	0	304.3300	1	
47	0	308.5141	0	460	1105	2857	4205	801	-13.5	200	1	1	308.8644	1	
48	0	312.3346	0	460	1105	2857	4205	551	-13.5	200	1	1	313.1178	1	
49	0	316.3581	0	460	1105	2857	4205	501	-18.0	200	1	0	317.3361	0	
50	1	323.0873	0	460	1105	2857	4205	501	-18.0	200	1	1	323.8015	1	
51	0	329.3720	0	730	2058	2857	4205	951	-2.0	200	0	0	330.1225	1	
52	0	334.5199	1	460	1105	2857	4205	601	-4.5	200	1	1	334.8707	1	
53	0	339.1481	0	460	1105	2857	4205	751	-9.0	200	1	1	342.6054	1	
54	0	346.8357	0	460	1105	2857	4205	851	0.0	200	1	1	347.1010	1	
55	0	350.7352	0	730	2058	2857	4205	701	-15.5	200	0	0	351.6010	1	
56	0	359.0170	0	730	2058	2857	4205	901	-6.5	200	0	0	359.5837	1	
57	0	363.4216	0	730	2058	2857	4205	651	-2.0	200	0	0	364.1163	1	
58	0	372.9641	1	730	2058	2857	4205	1001	-6.5	200	0	1	373.3802	0	
59	1	385.0464	0	730	2058	2857	4205	1001	-6.5	200	0	0	385.4173	1	
60	0	389.4025	1	460	1105	2857	4205	701	-9.0	200	1	1	389.8009	1	
61	0	393.1229	0	730	2058	2857	4205	551	-15.5	200	0	0	396.7363	1	
62	0	400.6867	0	460	1105	2857	4205	601	-18.0	200	1	1	401.0976	1	
63	0	404.8888	0	730	2058	2857	4205	1001	-2.0	200	0	1	405.3102	0	
64	1	415.4945	0	730	2058	2857	4205	1001	-2.0	200	0	0	415.9510	1	
65	0	420.6353	0	730	2058	2857	4205	801	-6.5	200	0	1	421.0946	0	
66	1	429.1353	0	730	2058	2857	4205	801	-6.5	200	0	0	430.3684	1	
67	0	434.9356	0	730	2058	2857	4205	651	-11.0	200	0	0	436.0142	1	
68	0	440.0145	0	730	2058	2857	4205	751	-2.0	200	0	0	441.0639	1	
69	0	445.6307	0	460	1105	2857	4205	951	-9.0	200	1	1	446.0009	1	
70	0	449.9408	0	460	1105	2857	4205	901	-18.0	200	1	1	450.5490	1	
71	0	454.2005	0	460	1105	2857	4205	501	-13.5	200	1	1	454.8225	1	
72	0	461.6658	0	460	1105	2857	4205	1001	0.0	200	1	1	461.9734	1	
73	0	466.4753	1	730	2058	2857	4205	751	-20.0	200	0	0	467.0172	1	
74	0	470.5098	0	730	2058	2857	4205	501	-11.0	200	0	0	474.2321	1	
75	0	478.4010	0	460	1105	2857	4205	601	-13.5	200	1	1	478.9724	1	
76	0	482.9753	1	730	2058	2857	4205	551	-11.0	200	0	0	484.0302	1	
77	0	488.0521	1	460	1105	2857	4205	951	0.0	200	1	0	494.3323	0	
78	1	502.7241	0	460	1105	2857	4205	951	0.0	200	1	1	503.0424	1	
79	0	507.3951	0	730	2058	2857	4205	801	-15.5	200	0	0	508.1318	1	
80	0	512.3790	0	730	2058	2857	4205	651	-6.5	200	0	0	513.3367	1	
81	0	519.6114	0	460	1105	2857	4205	701	-18.0	200	1	1	520.0652	1	
82	0	524.2501	1	460	1105	2857	4205	901	-13.5	200	1	1	524.4539	1	
83	0	528.8255	0	460	1105	2857	4205	551	-9.0	200	1	1	532.1840	1	
84	0	537.2926	0	730	2058	2857	4205	801	-2.0	200	0	0	537.7870	1	
85	0	541.9631	1	730	2058	2857	4205	851	-11.0	200	0	1	542.4533	0	
86	1	551.4655	0	730	2058	2857	4205	851	-11.0	200	0	0	551.9466	1	
87	0	556.2155	0	730	2058	2857	4205	501	-15.5	200	0	0	556.9229	1	
88	0	561.2087	0	730	2058	2857	4205	751	-20.0	200	0	0	561.5973	1	
89	0	576.6112	0	460	1105	2857	4205	1001	0.0	200	1	1	576.9716	1	
90	0	581.8409	0	460	1105	2857	4205	601	-9.0	200	1	1	582.7061	1	
91	0	586.9093	0	460	1105	2857	4205	901	-18.0	200	1	1	587.3008	1	
92	0	591.4722	0	460	1105	2857	4205	951	0.0	200	1	0	592.2111	0	
93	1	600.5191	0	460	1105	2857	4205	951	0.0	200	1	1	601.0216	1	
94	0	604.8915	0	730	2058	2857	4205	701	-6.5	200	0	0	605.6599	1	
95	0	609.6598	0	730	2058	2857	4205	501	-15.5	200	0	0	611.3103	1	
96	0	615.7318	0	460	1105	2857	4205	651	0.0	200	1	1	616.4760	1	
97	0	623.6265	0	460	1105	2857	4205	1001	-4.5	200	1	1	624.0646	1	
98	0	627.7538	0	460	1105	2857	4205	801	-9.0	200	1	1	628.2107	1	
99	0	631.9322	0	730	2058	2857	4205	701	-2.0	200	0	1	632.8498	0	
100	1	639.6305	0	730	2058	2857	4205	701	-2.0	200	0	0	640.3951	1	
101	0	644.2934	1	460	1105	2857	4205	901	-9.0	200	1	0	644.8471	0	
102	1	654.8829	0	460	1105	2857	4205	901	-9.0	200	1	1	655.0970	1	
103	0	658.8342	0	460	1105	2857	4205	601	-18.0	200	1	1	659.5093	1	
104	0	663.4873	0	730	2058	2857	4205	751	-6.5	200	0	0	664.8857	1	
105	0	668.4677	0	730	2058	2857	4205	551	-2.0	200	0	0	669.2604	1	
106	0	673.4341	0	730	2058	2857	4205	951	-11.0	200	0	0	673.8081	1	
107	0	683.0338	0	460	1105	2857	4205	901	-18.0	200	1	1	683.3652	1	
108	0	686.6568	0	730	2058	2857	4205	601	-6.5	200	0	1	687.5003	0	
109	1	694.5459	0	730	2058	2857	4205	601	-6.5	200	0	0	695.4435	1	
110	0	699.3697	0	460	1105	2857	4205	651	-9.0	200	1	0	700.2453	0	
111	1	708.2833	0	460	1105	2857	4205	651	-9.0	200	1	1	709.1220	1	
112	0	712.7935	0	730	2058	2857	4205	951	-2.0	200	0	1	713.0912	0	
113	1	719.8876	0	730	2058	2857	4205	951	-2.0	200	0	0	720.6405	1	
114	0	725.0362	1	460	1105	2857	4205	751	-18.0	200	1	0	725.9805	0	
115	1	735.4162	0	460	1105	2857	4205	751	-18.0	200	1	1	735.8732	1	
116	0	739.5209	0	730	2058	2857	4205	801	-6.5	200	0	0	740.3236	1	
117	0	743.6376	0	730	2058	2857	4205	501	-20.0	200	0	0	744.4804	1	
118	0	748.9153	1	460	1105	2857	4205	1001	-4.5	200	1	1	749.7397	1	
119	0	753.0557	0	730	2058	2857	4205	701	-15.5	200	0	0	756.8068	1	
120	0	760.6539	0	460	1105	2857	4205	551	0.0	200	1	0	761.3956	0	
121	1	768.5686	0	460	1105	2857	4205	551	0.0	200	1	1	769.2263	1	
122	0	773.4407	0	460	1105	2857	4205	651	0.0	200	1	1	773.9555	1	
123	0	777.8646	0	730	2058	2857	4205	751	-20.0	200	0	0	778.5347	1	
124	0	782.8664	0	460	1105	2857	4205	951	-4.5	200	1	1	784.3346	1	
125	0	787.9960	0	460	1105	2857	4205	551	-9.0	200	1	1	788.6403	1	
126	0	793.4811	0	730	2058	2857	4205	1001	-11.0	200	0	0	794.0215	1	
127	0	797.9962	0	730	2058	2857	4205	601	-2.0	200	0	0	798.7588	1	
128	0	803.0451	0	460	1105	2857	4205	701	-18.0	200	1	0	804.1039	0	
129	1	810.0360	0	460	1105	2857	4205	701	-18.0	200	1	0	810.4201	0	
130	1	828.7154	0	460	1105	2857	4205	701	-18.0	200	1	1	829.5243	1	
131	0	833.6682	0	460	1105	2857	4205	851	-13.5	200	1	1	834.0293	1	
132	0	838.0717	0	730	2058	2857	4205	801	-15.5	200	0	0	838.7785	1	
133	0	843.0988	1	730	2058	2857	4205	501	-2.0	200	0	1	844.1841	0	
134	1	852.1453	0	730	2058	2857	4205	501	-2.0	200	0	0	853.2873	1	
135	0	857.6605	0	460	1105	2857	4205	951	-18.0	200	1	1	858.2322	1	
136	0	866.1339	0	730	2058	2857	4205	801	-6.5	200	0	1	866.4453	0	
