Trial	CorrectionTrial?	StartTime	CenterReward?	F1	F2	F3	F4	HoldTime	Atten	Pitch	Side	Response	RespTime	Correct	
1	0	8.9273	0	460	1105	2857	4205	501	-9.0	200	1	0	9.9554	0	
2	1	23.3215	0	460	1105	2857	4205	501	-9.0	200	1	0	24.4212	0	
3	1	40.7683	0	460	1105	2857	4205	501	-9.0	200	1	0	42.7626	0	
4	1	54.4651	0	460	1105	2857	4205	501	-9.0	200	1	1	57.4492	1	
5	0	69.4088	0	730	2058	2857	4205	951	-2.0	200	0	1	70.3742	0	
6	1	82.9615	0	730	2058	2857	4205	951	-2.0	200	0	0	84.5549	1	
7	0	92.7029	0	730	2058	2857	4205	601	-15.5	200	0	0	93.6998	1	
8	0	106.0237	0	730	2058	2857	4205	651	-6.5	200	0	0	106.7783	1	
9	0	114.7382	0	460	1105	2857	4205	901	-4.5	200	1	0	115.2885	0	
10	1	127.6309	0	460	1105	2857	4205	901	-4.5	200	1	1	128.5885	1	
11	0	132.8733	0	460	1105	2857	4205	1001	-18.0	200	1	1	134.1248	1	
12	0	139.4324	0	460	1105	2857	4205	851	0.0	200	1	1	140.3023	1	
13	0	144.8142	0	730	2058	2857	4205	551	-11.0	200	0	0	146.3740	1	
14	0	154.3577	0	730	2058	2857	4205	701	-6.5	200	0	0	155.6326	1	
15	0	160.9968	0	460	1105	2857	4205	751	-18.0	200	1	1	161.9080	1	
16	0	167.3834	0	730	2058	2857	4205	701	-2.0	200	0	0	168.6860	1	
17	0	173.4824	0	730	2058	2857	4205	501	-15.5	200	0	0	174.2592	1	
18	0	182.6663	0	460	1105	2857	4205	951	-13.5	200	1	1	183.5024	1	
19	0	187.7955	0	460	1105	2857	4205	1001	-9.0	200	1	1	188.3391	1	
20	0	191.9966	0	730	2058	2857	4205	551	-6.5	200	0	1	193.2433	0	
21	1	204.2462	0	730	2058	2857	4205	551	-6.5	200	0	0	205.3201	1	
22	0	213.8802	0	730	2058	2857	4205	651	-2.0	200	0	0	214.6610	1	
23	0	222.8690	0	730	2058	2857	4205	901	-2.0	200	0	0	224.1056	1	
24	0	229.6096	0	460	1105	2857	4205	851	-18.0	200	1	1	230.2715	1	
25	0	233.6405	0	460	1105	2857	4205	601	-9.0	200	1	0	234.3798	0	
26	1	246.3044	1	460	1105	2857	4205	601	-9.0	200	1	1	249.3281	1	
27	0	255.5170	0	460	1105	2857	4205	801	-4.5	200	1	1	256.3510	1	
28	0	260.7992	0	460	1105	2857	4205	551	-9.0	200	1	1	261.8652	1	
29	0	265.5363	0	730	2058	2857	4205	601	-20.0	200	0	0	266.6151	1	
30	0	271.6927	0	730	2058	2857	4205	501	-2.0	200	0	0	272.5446	1	
31	0	277.5070	0	460	1105	2857	4205	951	-13.5	200	1	1	278.3612	1	
32	0	285.6089	0	460	1105	2857	4205	901	-18.0	200	1	1	286.7103	1	
33	0	291.0479	0	460	1105	2857	4205	751	0.0	200	1	1	292.0112	1	
34	0	296.1683	1	460	1105	2857	4205	651	-9.0	200	1	1	299.4385	1	
35	0	303.7000	0	730	2058	2857	4205	1001	-15.5	200	0	0	305.0964	1	
36	0	310.2585	0	730	2058	2857	4205	701	-15.5	200	0	0	311.5446	1	
37	0	319.4935	0	730	2058	2857	4205	801	-20.0	200	0	0	320.4100	1	
38	0	325.5628	0	730	2058	2857	4205	551	-11.0	200	0	0	326.4912	1	
39	0	335.5344	0	730	2058	2857	4205	851	-6.5	200	0	0	336.2860	1	
40	0	342.0299	0	460	1105	2857	4205	951	-4.5	200	1	1	342.5619	1	
41	0	346.7634	0	460	1105	2857	4205	901	-13.5	200	1	1	347.5021	1	
42	0	351.0324	0	460	1105	2857	4205	601	0.0	200	1	1	351.9412	1	
43	0	356.2408	0	460	1105	2857	4205	751	-18.0	200	1	1	357.3195	1	
44	0	361.6112	0	730	2058	2857	4205	501	-20.0	200	0	0	362.8852	1	
45	0	370.4460	0	730	2058	2857	4205	1001	-15.5	200	0	0	371.0384	1	
46	0	375.3761	0	460	1105	2857	4205	801	0.0	200	1	0	376.4495	0	
47	1	389.9653	0	460	1105	2857	4205	801	0.0	200	1	1	390.9485	1	
48	0	394.7339	0	730	2058	2857	4205	651	-11.0	200	0	0	396.1494	1	
49	0	401.2562	0	730	2058	2857	4205	901	-15.5	200	0	0	402.4864	1	
50	0	406.8138	0	460	1105	2857	4205	751	0.0	200	1	1	407.8059	1	
51	0	411.7955	0	730	2058	2857	4205	701	-6.5	200	0	0	412.6859	1	
52	0	416.8616	0	460	1105	2857	4205	851	-18.0	200	1	1	417.4100	1	
53	0	421.1306	1	460	1105	2857	4205	601	-9.0	200	1	1	424.2834	1	
54	0	427.8624	0	730	2058	2857	4205	551	-6.5	200	0	0	428.9273	1	
55	0	434.5368	0	460	1105	2857	4205	951	0.0	200	1	0	435.8640	0	
56	1	453.5843	0	460	1105	2857	4205	951	0.0	200	1	1	454.3218	1	
57	0	458.4032	0	730	2058	2857	4205	651	-15.5	200	0	0	459.8979	1	
58	0	464.2934	0	460	1105	2857	4205	801	0.0	200	1	0	465.2039	0	
59	1	482.1307	0	460	1105	2857	4205	801	0.0	200	1	1	483.0086	1	
60	0	486.8936	0	730	2058	2857	4205	501	-20.0	200	0	0	488.6378	1	
61	0	499.7928	1	730	2058	2857	4205	901	-15.5	200	0	1	503.2128	0	
62	1	524.0371	0	730	2058	2857	4205	901	-15.5	200	0	1	526.4600	0	
63	1	538.6620	0	730	2058	2857	4205	901	-15.5	200	0	0	539.6197	1	
64	0	545.4529	0	460	1105	2857	4205	751	-4.5	200	1	1	546.8696	1	
65	0	551.3282	1	460	1105	2857	4205	951	-13.5	200	1	1	554.7161	1	
66	0	558.9875	0	730	2058	2857	4205	801	-11.0	200	0	0	559.9112	1	
67	0	564.7419	0	730	2058	2857	4205	851	-20.0	200	0	0	565.5384	1	
68	0	570.8939	0	730	2058	2857	4205	501	-6.5	200	0	0	571.8271	1	
69	0	576.2508	0	730	2058	2857	4205	551	-6.5	200	0	0	577.1521	1	
70	0	585.4188	0	460	1105	2857	4205	1001	-9.0	200	1	1	585.8943	1	
71	0	589.9002	0	460	1105	2857	4205	701	-13.5	200	1	1	591.0005	1	
72	0	594.6868	0	460	1105	2857	4205	651	-18.0	200	1	1	595.8093	1	
73	0	600.0147	0	730	2058	2857	4205	801	-20.0	200	0	0	601.1335	1	
74	0	605.3339	0	730	2058	2857	4205	951	-6.5	200	0	0	606.0081	1	
75	0	611.1035	0	460	1105	2857	4205	1001	-9.0	200	1	1	611.8855	1	
76	0	615.5534	0	460	1105	2857	4205	901	-13.5	200	1	1	616.4048	1	
77	0	619.7912	0	730	2058	2857	4205	601	-2.0	200	0	0	620.8602	1	
78	0	626.0516	0	730	2058	2857	4205	651	-11.0	200	0	0	627.0788	1	
79	0	631.4727	0	460	1105	2857	4205	751	-13.5	200	1	1	632.0417	1	
80	0	635.7198	0	460	1105	2857	4205	501	-4.5	200	1	1	637.0621	1	
81	0	640.9297	0	460	1105	2857	4205	551	-13.5	200	1	1	641.9986	1	
82	0	645.9194	0	730	2058	2857	4205	851	-20.0	200	0	0	646.8649	1	
83	0	651.0384	0	460	1105	2857	4205	751	-4.5	200	1	1	651.6710	1	
84	0	655.4415	0	730	2058	2857	4205	901	-11.0	200	0	0	656.4062	1	
85	0	666.1307	0	730	2058	2857	4205	801	-6.5	200	0	0	666.6796	1	
86	0	672.0501	0	460	1105	2857	4205	651	0.0	200	1	1	673.1254	1	
87	0	677.6964	0	730	2058	2857	4205	951	-11.0	200	0	0	678.7974	1	
88	0	683.5851	0	460	1105	2857	4205	501	-13.5	200	1	1	684.3557	1	
89	0	688.9125	0	730	2058	2857	4205	1001	-6.5	200	0	0	689.8257	1	
90	0	696.9919	1	460	1105	2857	4205	851	-18.0	200	1	1	700.3877	1	
91	0	703.7796	0	730	2058	2857	4205	701	-11.0	200	0	0	705.5776	1	
92	0	709.6664	0	460	1105	2857	4205	551	0.0	200	1	1	710.5712	1	
93	0	713.9953	0	730	2058	2857	4205	651	-6.5	200	0	0	716.0110	1	
94	0	720.6697	0	460	1105	2857	4205	751	-18.0	200	1	1	721.6961	1	
95	0	725.7652	0	730	2058	2857	4205	951	-15.5	200	0	0	726.5144	1	
96	0	734.2960	0	730	2058	2857	4205	901	-11.0	200	0	0	735.3411	1	
97	0	739.7205	0	460	1105	2857	4205	601	0.0	200	1	0	740.7335	0	
98	1	751.6158	0	460	1105	2857	4205	601	0.0	200	1	1	752.8958	1	
99	0	756.8806	1	460	1105	2857	4205	851	-4.5	200	1	1	760.1986	1	
100	0	764.0554	0	460	1105	2857	4205	1001	-13.5	200	1	1	765.1345	1	
101	0	768.7871	0	460	1105	2857	4205	501	-9.0	200	1	1	769.8494	1	
102	0	773.4893	0	730	2058	2857	4205	701	-6.5	200	0	0	774.5035	1	
103	0	778.5511	1	730	2058	2857	4205	551	-11.0	200	0	0	781.7730	1	
104	0	786.5863	1	730	2058	2857	4205	801	-15.5	200	0	1	790.1974	0	
105	1	803.1202	0	730	2058	2857	4205	801	-15.5	200	0	0	804.3271	1	
106	0	810.0930	1	460	1105	2857	4205	1001	-18.0	200	1	0	813.9990	0	
107	1	828.2507	0	460	1105	2857	4205	1001	-18.0	200	1	1	829.1057	1	
108	0	833.3618	0	460	1105	2857	4205	901	-9.0	200	1	1	834.2629	1	
109	0	838.2143	0	730	2058	2857	4205	701	-15.5	200	0	0	839.2774	1	
110	0	843.0627	0	460	1105	2857	4205	501	-4.5	200	1	1	844.2937	1	
111	0	847.7464	1	730	2058	2857	4205	601	-2.0	200	0	1	852.0778	0	
112	1	865.4528	0	730	2058	2857	4205	601	-2.0	200	0	0	866.7338	1	
113	0	871.7196	0	730	2058	2857	4205	551	-11.0	200	0	1	872.8392	0	
114	1	885.5763	0	730	2058	2857	4205	551	-11.0	200	0	0	887.1616	1	
115	0	892.6446	0	460	1105	2857	4205	651	-4.5	200	1	1	893.7467	1	
116	0	897.5601	0	460	1105	2857	4205	951	0.0	200	1	1	898.6619	1	
117	0	902.4129	0	730	2058	2857	4205	751	-15.5	200	0	0	903.2746	1	
118	0	907.3968	0	460	1105	2857	4205	651	-13.5	200	1	1	908.2714	1	
119	0	912.0687	0	730	2058	2857	4205	751	-2.0	200	0	0	913.5404	1	
120	0	918.2138	0	460	1105	2857	4205	851	-18.0	200	1	1	919.0648	1	
121	0	922.9664	0	460	1105	2857	4205	951	-4.5	200	1	1	923.7361	1	
122	0	927.4410	0	730	2058	2857	4205	901	-20.0	200	0	0	928.6889	1	
123	0	934.2793	0	460	1105	2857	4205	701	-9.0	200	1	0	935.9095	0	
124	1	962.4496	0	460	1105	2857	4205	701	-9.0	200	1	1	963.7868	1	
125	0	967.9563	1	730	2058	2857	4205	551	-6.5	200	0	1	971.6152	0	
126	1	983.6499	0	730	2058	2857	4205	551	-6.5	200	0	0	985.0233	1	
127	0	989.7021	0	460	1105	2857	4205	801	0.0	200	1	1	990.6514	1	
128	0	994.0405	0	730	2058	2857	4205	601	-11.0	200	0	0	995.0474	1	
129	0	1003.2835	0	730	2058	2857	4205	1001	-20.0	200	0	0	1004.2232	1	
130	0	1008.7118	0	730	2058	2857	4205	601	-6.5	200	0	0	1009.8801	1	
131	0	1014.0085	0	460	1105	2857	4205	701	0.0	200	1	1	1015.0701	1	
132	0	1019.4421	0	730	2058	2857	4205	951	-2.0	200	0	0	1020.4055	1	
133	0	1025.1350	1	460	1105	2857	4205	551	-9.0	200	1	0	1028.4616	0	
134	1	1040.7693	0	460	1105	2857	4205	551	-9.0	200	1	1	1041.8589	1	
135	0	1045.4317	0	460	1105	2857	4205	501	-13.5	200	1	1	1046.6720	1	
136	0	1050.4412	0	730	2058	2857	4205	751	-20.0	200	0	0	1051.1254	1	
137	0	1055.9790	0	730	2058	2857	4205	651	-15.5	200	0	0	1056.9593	1	
138	0	1065.1696	0	730	2058	2857	4205	1001	-2.0	200	0	0	1066.0417	1	
139	0	1071.2110	0	460	1105	2857	4205	851	-9.0	200	1	0	1072.0290	0	
140	1	1083.8894	1	460	1105	2857	4205	851	-9.0	200	1	1	1087.4854	1	
141	0	1091.0679	0	460	1105	2857	4205	901	-4.5	200	1	1	1092.1878	1	
142	0	1096.6045	0	730	2058	2857	4205	901	-11.0	200	0	0	1097.6304	1	
143	0	1105.5273	0	460	1105	2857	4205	851	-13.5	200	1	1	1106.3723	1	
144	0	1110.3340	0	460	1105	2857	4205	551	0.0	200	1	1	1111.3343	1	
145	0	1114.3033	0	460	1105	2857	4205	601	-18.0	200	1	1	1115.1259	1	
146	0	1118.9641	0	460	1105	2857	4205	701	-9.0	200	1	1	1120.1155	1	
147	0	1124.0926	0	730	2058	2857	4205	1001	-15.5	200	0	1	1124.9922	0	
148	1	1136.0192	0	730	2058	2857	4205	1001	-15.5	200	0	0	1137.1201	1	
149	0	1141.4381	0	730	2058	2857	4205	951	-2.0	200	0	0	1142.3341	1	
150	0	1146.6442	0	460	1105	2857	4205	651	-18.0	200	1	1	1147.5531	1	
151	0	1151.1075	1	730	2058	2857	4205	801	-6.5	200	0	1	1154.1787	0	
152	1	1177.0774	0	730	2058	2857	4205	801	-6.5	200	0	0	1178.4505	1	
153	0	1182.8358	0	730	2058	2857	4205	501	-2.0	200	0	0	1183.8684	1	
154	0	1189.0287	0	460	1105	2857	4205	851	-9.0	200	1	1	1189.5600	1	
155	0	1193.3321	0	730	2058	2857	4205	801	-15.5	200	0	0	1194.3258	1	
156	0	1199.2243	0	460	1105	2857	4205	701	-4.5	200	1	1	1199.7635	1	
157	0	1204.4216	0	460	1105	2857	4205	951	0.0	200	1	1	1205.2455	1	
158	0	1208.8962	0	730	2058	2857	4205	901	-11.0	200	0	0	1210.4846	1	
159	0	1214.8347	0	730	2058	2857	4205	601	-20.0	200	0	0	1215.7202	1	
160	0	1220.1418	0	460	1105	2857	4205	501	-9.0	200	1	1	1221.1086	1	
161	0	1225.0317	0	730	2058	2857	4205	751	-20.0	200	0	0	1226.6760	1	
162	0	1230.8514	0	730	2058	2857	4205	651	-15.5	200	0	0	1231.8485	1	
163	0	1236.6003	0	460	1105	2857	4205	551	0.0	200	1	1	1237.9245	1	
164	0	1241.3135	0	460	1105	2857	4205	601	-13.5	200	1	1	1242.3867	1	
165	0	1246.6446	0	460	1105	2857	4205	901	-9.0	200	1	1	1247.4882	1	
166	0	1250.8982	0	730	2058	2857	4205	651	-2.0	200	0	0	1251.8786	1	
167	0	1256.4808	0	460	1105	2857	4205	551	-4.5	200	1	1	1257.4342	1	
168	0	1261.5692	0	730	2058	2857	4205	751	-2.0	200	0	0	1262.6065	1	
169	0	1267.5171	0	730	2058	2857	4205	851	-20.0	200	0	0	1268.7755	1	
170	0	1274.7002	0	460	1105	2857	4205	701	-4.5	200	1	0	1276.3496	0	
