Trial	CorrectionTrial?	StartTime	CenterReward?	F1	F2	F3	F4	HoldTime	Atten	Pitch	Side	Response	RespTime	Correct	
1	0	3.5726	0	460	1105	2857	4205	551	-19.0	200	1	1	5.6207	1	
2	0	20.2110	1	460	1105	2857	4205	1001	-19.0	200	1	1	20.5574	1	
3	0	26.4831	1	730	2058	2857	4205	751	-15.0	200	0	1	29.9929	0	
4	1	44.1414	0	730	2058	2857	4205	751	-15.0	200	0	0	44.5694	1	
5	0	49.2754	0	460	1105	2857	4205	601	-19.0	200	1	1	49.6736	1	
6	0	66.0616	0	730	2058	2857	4205	951	-21.0	200	0	0	66.4381	1	
7	0	71.0322	0	730	2058	2857	4205	651	-21.0	200	0	1	71.3791	0	
8	1	77.1740	0	730	2058	2857	4205	651	-21.0	200	0	0	78.0606	1	
9	0	91.6417	0	730	2058	2857	4205	801	-21.0	200	0	0	91.9603	1	
10	0	103.8684	0	460	1105	2857	4205	901	-13.0	200	1	1	104.3901	1	
11	0	111.0504	0	460	1105	2857	4205	651	-13.0	200	1	1	111.4277	1	
12	0	117.9763	0	730	2058	2857	4205	701	-21.0	200	0	0	118.7165	1	
13	0	122.3103	0	730	2058	2857	4205	501	-22.5	200	-1	1	122.5916	-1	
14	0	127.6405	0	460	1105	2857	4205	501	-24.0	200	-1	1	127.9548	-1	
15	0	136.1684	0	460	1105	2857	4205	601	-19.0	200	1	1	136.5447	1	
16	0	161.7647	0	730	2058	2857	4205	951	-15.0	200	0	0	162.4146	1	
17	0	172.3792	0	460	1105	2857	4205	501	-24.0	200	-1	1	172.8308	-1	
18	0	180.4711	0	460	1105	2857	4205	751	-19.0	200	1	1	180.7828	1	
19	0	191.6833	0	730	2058	2857	4205	851	-21.0	200	0	0	192.2946	1	
20	0	196.3186	0	730	2058	2857	4205	501	-22.5	200	-1	1	196.6710	-1	
21	0	203.7510	0	460	1105	2857	4205	851	-19.0	200	1	1	204.0616	1	
22	0	211.5406	0	460	1105	2857	4205	601	-13.0	200	1	1	211.8145	1	
23	0	215.5006	0	730	2058	2857	4205	551	-21.0	200	0	0	215.9610	1	
24	0	242.2895	0	730	2058	2857	4205	1001	-21.0	200	0	0	242.6215	1	
25	0	250.4238	0	460	1105	2857	4205	701	-13.0	200	1	1	250.6511	1	
26	0	254.3960	0	730	2058	2857	4205	501	-22.5	200	-1	1	254.7481	-1	
27	0	263.5978	0	460	1105	2857	4205	651	-13.0	200	1	1	263.8826	1	
28	0	272.0778	0	730	2058	2857	4205	801	-15.0	200	0	0	272.4183	1	
29	0	284.6036	0	730	2058	2857	4205	751	-15.0	200	0	0	285.5291	1	
30	0	298.4049	0	730	2058	2857	4205	951	-21.0	200	0	1	298.7401	0	
31	1	304.7968	0	730	2058	2857	4205	951	-21.0	200	0	0	305.2657	1	
32	0	310.3305	0	460	1105	2857	4205	501	-24.0	200	-1	1	310.6955	-1	
33	0	319.8293	0	460	1105	2857	4205	901	-19.0	200	1	1	320.2640	1	
34	0	325.0281	0	460	1105	2857	4205	501	-24.0	200	-1	1	325.3857	-1	
35	0	333.4193	0	730	2058	2857	4205	751	-15.0	200	0	0	333.8969	1	
36	0	341.8930	0	460	1105	2857	4205	701	-19.0	200	1	1	342.2258	1	
37	0	347.1741	0	730	2058	2857	4205	501	-22.5	200	-1	1	347.7466	-1	
38	0	356.7804	0	460	1105	2857	4205	651	-19.0	200	1	1	357.0638	1	
39	0	365.4259	0	460	1105	2857	4205	951	-19.0	200	1	1	365.6632	1	
40	0	374.9972	0	730	2058	2857	4205	601	-15.0	200	0	0	375.5307	1	
41	0	379.0979	0	730	2058	2857	4205	501	-15.0	200	0	0	379.4571	1	
42	0	383.4057	0	730	2058	2857	4205	501	-22.5	200	-1	1	383.8176	-1	
43	0	389.4605	0	730	2058	2857	4205	651	-21.0	200	0	0	389.8981	1	
44	0	398.7177	0	460	1105	2857	4205	951	-19.0	200	1	1	399.0575	1	
45	0	409.8040	0	730	2058	2857	4205	801	-21.0	200	0	0	410.1436	1	
46	0	414.1084	0	460	1105	2857	4205	501	-24.0	200	-1	1	414.4820	-1	
47	0	421.6254	0	730	2058	2857	4205	1001	-21.0	200	0	1	421.9469	0	
48	1	444.2338	0	730	2058	2857	4205	1001	-21.0	200	0	0	444.7390	1	
49	0	449.2196	0	460	1105	2857	4205	701	-19.0	200	1	1	449.7295	1	
50	0	453.3636	0	460	1105	2857	4205	751	-19.0	200	1	1	453.7128	1	
51	0	460.7579	0	730	2058	2857	4205	901	-15.0	200	0	0	461.1089	1	
52	0	464.8570	0	730	2058	2857	4205	601	-21.0	200	0	0	465.1611	1	
53	0	471.1048	0	460	1105	2857	4205	501	-24.0	200	-1	1	471.5628	-1	
54	0	475.1489	0	730	2058	2857	4205	501	-15.0	200	0	0	475.7789	1	
55	0	483.3206	0	460	1105	2857	4205	901	-19.0	200	1	1	483.5428	1	
56	0	495.2194	0	460	1105	2857	4205	951	-13.0	200	1	1	495.4689	1	
57	0	500.5418	0	730	2058	2857	4205	501	-22.5	200	-1	1	500.9422	-1	
58	0	508.3245	0	460	1105	2857	4205	851	-13.0	200	1	1	508.6052	1	
59	0	513.7339	0	460	1105	2857	4205	551	-13.0	200	1	1	514.0707	1	
60	0	517.9440	0	460	1105	2857	4205	601	-19.0	200	1	1	518.3616	1	
61	0	523.2291	0	460	1105	2857	4205	501	-24.0	200	-1	1	523.7066	-1	
62	0	527.5233	0	730	2058	2857	4205	501	-22.5	200	-1	1	527.9179	-1	
63	0	532.6729	0	730	2058	2857	4205	501	-21.0	200	0	0	533.3583	1	
64	0	540.2854	0	460	1105	2857	4205	1001	-13.0	200	1	1	540.4982	1	
65	0	551.4928	0	730	2058	2857	4205	901	-21.0	200	0	0	551.8139	1	
66	0	555.5530	0	730	2058	2857	4205	601	-15.0	200	0	0	555.8505	1	
67	0	565.2804	0	730	2058	2857	4205	751	-15.0	200	0	0	565.6200	1	
68	0	571.6922	0	460	1105	2857	4205	551	-13.0	200	1	1	572.2678	1	
69	0	578.2063	0	730	2058	2857	4205	851	-15.0	200	0	0	578.6269	1	
70	0	591.1984	0	460	1105	2857	4205	801	-13.0	200	1	1	591.4637	1	
71	0	598.3856	0	730	2058	2857	4205	651	-21.0	200	0	0	599.0908	1	
72	0	604.8602	0	460	1105	2857	4205	501	-24.0	200	-1	1	605.5538	-1	
73	0	614.0179	0	460	1105	2857	4205	701	-13.0	200	1	1	614.3110	1	
74	0	618.7423	0	730	2058	2857	4205	501	-22.5	200	-1	1	619.3978	-1	
75	0	624.9436	0	460	1105	2857	4205	651	-13.0	200	1	1	625.3452	1	
76	0	639.1616	0	730	2058	2857	4205	751	-15.0	200	0	0	639.5281	1	
77	0	653.3671	0	460	1105	2857	4205	1001	-19.0	200	1	1	653.6679	1	
78	0	664.7064	0	460	1105	2857	4205	901	-13.0	200	1	1	665.1926	1	
79	0	669.1472	0	730	2058	2857	4205	501	-21.0	200	0	0	669.5438	1	
80	0	673.7150	0	730	2058	2857	4205	501	-22.5	200	-1	1	674.0888	-1	
81	0	678.7222	0	460	1105	2857	4205	501	-24.0	200	-1	1	679.2063	-1	
82	0	697.6552	0	730	2058	2857	4205	801	-21.0	200	0	0	698.0177	1	
83	0	706.5029	0	460	1105	2857	4205	701	-13.0	200	1	1	706.8693	1	
84	0	729.7048	0	730	2058	2857	4205	901	-21.0	200	0	0	730.0643	1	
85	0	741.8801	0	460	1105	2857	4205	951	-19.0	200	1	1	742.1969	1	
86	0	746.0054	0	730	2058	2857	4205	501	-22.5	200	-1	1	746.4216	-1	
87	0	750.9103	0	460	1105	2857	4205	501	-24.0	200	-1	1	751.3661	-1	
88	0	754.6397	0	730	2058	2857	4205	651	-15.0	200	0	0	755.0611	1	
89	0	758.4667	0	460	1105	2857	4205	501	-13.0	200	1	1	758.8149	1	
90	0	762.0506	0	730	2058	2857	4205	751	-15.0	200	0	1	762.6457	0	
91	1	770.6241	0	730	2058	2857	4205	751	-15.0	200	0	0	771.0051	1	
92	0	791.7648	0	730	2058	2857	4205	1001	-15.0	200	0	0	792.4072	1	
93	0	798.6953	0	730	2058	2857	4205	501	-22.5	200	-1	1	799.1554	-1	
94	0	813.1870	0	730	2058	2857	4205	901	-21.0	200	0	0	813.5872	1	
95	0	821.2979	0	460	1105	2857	4205	1001	-13.0	200	1	1	821.6596	1	
96	0	825.4063	0	460	1105	2857	4205	501	-24.0	200	-1	1	825.8345	-1	
97	0	829.5104	0	460	1105	2857	4205	551	-19.0	200	1	1	829.9057	1	
98	0	834.0170	0	730	2058	2857	4205	751	-15.0	200	0	0	834.5715	1	
99	0	838.1137	0	460	1105	2857	4205	851	-13.0	200	1	0	839.1704	0	
100	1	858.6410	1	460	1105	2857	4205	851	-13.0	200	1	1	859.0723	1	
101	0	863.7841	0	730	2058	2857	4205	801	-21.0	200	0	1	865.4702	0	
102	1	877.3747	0	730	2058	2857	4205	801	-21.0	200	0	0	877.7879	1	
103	0	882.0046	0	460	1105	2857	4205	701	-19.0	200	1	1	882.5125	1	
104	0	885.7406	0	460	1105	2857	4205	501	-24.0	200	-1	1	886.1726	-1	
105	0	889.6175	0	460	1105	2857	4205	601	-13.0	200	1	1	889.8959	1	
106	0	900.0820	1	730	2058	2857	4205	901	-15.0	200	0	0	900.5229	1	
107	0	904.0536	0	730	2058	2857	4205	551	-21.0	200	0	0	906.4958	1	
108	0	918.7384	0	460	1105	2857	4205	851	-13.0	200	1	1	919.0259	1	
109	0	922.2065	0	730	2058	2857	4205	501	-22.5	200	-1	1	922.6866	-1	
110	0	928.1840	0	460	1105	2857	4205	651	-13.0	200	1	1	928.5614	1	
111	0	932.4403	0	730	2058	2857	4205	501	-22.5	200	-1	1	932.9501	-1	
112	0	938.2820	0	460	1105	2857	4205	601	-13.0	200	1	1	938.6713	1	
113	0	948.7366	0	730	2058	2857	4205	801	-15.0	200	0	0	949.2028	1	
114	0	956.5624	0	730	2058	2857	4205	1001	-21.0	200	0	0	957.0654	1	
115	0	962.5074	0	460	1105	2857	4205	501	-13.0	200	1	1	962.8770	1	
116	0	967.5130	0	730	2058	2857	4205	501	-15.0	200	0	0	968.8253	1	
117	0	972.4477	0	460	1105	2857	4205	501	-24.0	200	-1	1	972.7726	-1	
118	0	983.0446	0	730	2058	2857	4205	701	-21.0	200	0	0	983.7195	1	
119	0	988.7787	0	730	2058	2857	4205	501	-22.5	200	-1	1	989.4475	-1	
120	0	992.5444	0	460	1105	2857	4205	501	-24.0	200	-1	1	992.9530	-1	
121	0	1001.5289	0	460	1105	2857	4205	951	-13.0	200	1	1	1001.8140	1	
122	0	1011.4164	0	730	2058	2857	4205	1001	-21.0	200	0	0	1011.7249	1	
123	0	1015.3267	0	460	1105	2857	4205	851	-19.0	200	1	0	1016.0686	0	
124	1	1035.9296	0	460	1105	2857	4205	851	-19.0	200	1	0	1036.7502	0	
125	1	1051.9864	0	460	1105	2857	4205	851	-19.0	200	1	1	1052.4993	1	
126	0	1057.2480	0	730	2058	2857	4205	551	-21.0	200	0	0	1058.1087	1	
127	0	1066.8084	1	460	1105	2857	4205	901	-19.0	200	1	0	1067.4119	0	
128	1	1081.6080	0	460	1105	2857	4205	901	-19.0	200	1	0	1082.1689	0	
129	1	1093.6616	0	460	1105	2857	4205	901	-19.0	200	1	1	1094.0310	1	
130	0	1105.4048	0	730	2058	2857	4205	901	-15.0	200	0	0	1105.9050	1	
131	0	1109.2095	0	460	1105	2857	4205	501	-24.0	200	-1	1	1109.7213	-1	
132	0	1112.7605	0	730	2058	2857	4205	601	-21.0	200	0	0	1113.6754	1	
133	0	1117.3056	0	730	2058	2857	4205	501	-22.5	200	-1	1	1117.9178	-1	
134	0	1125.5878	0	460	1105	2857	4205	1001	-13.0	200	1	1	1126.0051	1	
135	0	1150.6304	0	460	1105	2857	4205	851	-19.0	200	1	1	1155.5790	1	
136	0	1165.5962	0	730	2058	2857	4205	551	-15.0	200	0	0	1166.4072	1	
137	0	1170.8527	0	460	1105	2857	4205	801	-13.0	200	1	1	1171.4528	1	
138	0	1175.4505	0	730	2058	2857	4205	501	-22.5	200	-1	1	1175.8163	-1	
139	0	1215.8856	0	460	1105	2857	4205	501	-13.0	200	1	1	1219.6198	1	
