Trial	CorrectionTrial?	StartTime	CenterReward?	F1	F2	F3	F4	HoldTime	Atten	Pitch	Side	Response	RespTime	Correct	
1	0	6.8835	0	730	2058	2857	4205	701	-21.0	200	0	1	15.0320	0	
2	1	25.9123	0	730	2058	2857	4205	701	-21.0	200	0	1	27.0563	0	
3	1	43.8049	0	730	2058	2857	4205	701	-21.0	200	0	0	45.3715	1	
4	0	66.2774	0	460	1105	2857	4205	501	-13.0	200	1	0	68.3238	0	
5	1	76.7223	0	460	1105	2857	4205	501	-13.0	200	1	1	77.9104	1	
6	0	84.6867	0	730	2058	2857	4205	501	-22.5	200	-1	1	86.6648	-1	
7	0	102.2974	0	730	2058	2857	4205	951	-21.0	200	0	0	103.8723	1	
8	0	121.3372	0	460	1105	2857	4205	901	-13.0	200	1	0	122.2330	0	
9	1	131.3596	0	460	1105	2857	4205	901	-13.0	200	1	1	134.2776	1	
10	0	144.2679	1	460	1105	2857	4205	551	-19.0	200	1	1	145.4922	1	
11	0	152.7214	0	730	2058	2857	4205	1001	-21.0	200	0	1	158.4153	0	
12	1	168.7404	0	730	2058	2857	4205	1001	-21.0	200	0	1	170.6237	0	
13	1	177.0949	0	730	2058	2857	4205	1001	-21.0	200	0	1	179.1439	0	
14	1	187.3959	0	730	2058	2857	4205	1001	-21.0	200	0	0	189.7029	1	
15	0	208.4852	0	460	1105	2857	4205	501	-24.0	200	-1	0	210.0914	-1	
16	0	228.9863	0	730	2058	2857	4205	751	-21.0	200	0	1	230.1911	0	
17	1	242.9822	0	730	2058	2857	4205	751	-21.0	200	0	0	243.7466	1	
18	0	257.3684	0	730	2058	2857	4205	501	-21.0	200	0	0	258.4357	1	
19	0	278.7014	0	730	2058	2857	4205	701	-15.0	200	0	0	279.4101	1	
20	0	296.1923	0	460	1105	2857	4205	801	-19.0	200	1	1	298.9358	1	
21	0	306.8813	0	460	1105	2857	4205	751	-13.0	200	1	1	307.9366	1	
22	0	314.2649	0	730	2058	2857	4205	501	-22.5	200	-1	1	315.7108	-1	
23	0	326.6510	0	460	1105	2857	4205	551	-13.0	200	1	1	327.2691	1	
24	0	338.4554	0	460	1105	2857	4205	501	-24.0	200	-1	1	339.7108	-1	
25	0	346.4588	0	730	2058	2857	4205	1001	-15.0	200	0	1	348.1863	0	
26	1	361.3676	0	730	2058	2857	4205	1001	-15.0	200	0	0	362.2629	1	
27	0	383.2291	0	460	1105	2857	4205	901	-19.0	200	1	1	384.5973	1	
28	0	390.0628	0	730	2058	2857	4205	651	-21.0	200	0	1	390.8563	0	
29	1	397.8439	0	730	2058	2857	4205	651	-21.0	200	0	1	399.0576	0	
30	1	408.1152	1	730	2058	2857	4205	651	-21.0	200	0	0	414.3940	1	
31	0	429.8201	0	730	2058	2857	4205	501	-22.5	200	-1	0	433.6585	-1	
32	0	451.9229	0	730	2058	2857	4205	901	-21.0	200	0	0	453.5209	1	
33	0	469.5788	0	460	1105	2857	4205	601	-13.0	200	1	1	472.1510	1	
34	0	477.0311	0	460	1105	2857	4205	651	-19.0	200	1	1	478.0828	1	
35	0	482.9412	0	730	2058	2857	4205	701	-15.0	200	0	1	484.1763	0	
36	1	490.2424	0	730	2058	2857	4205	701	-15.0	200	0	0	491.1765	1	
37	0	504.5991	0	460	1105	2857	4205	501	-24.0	200	-1	1	505.6724	-1	
38	0	513.3550	0	730	2058	2857	4205	851	-21.0	200	0	0	514.1968	1	
39	0	523.1279	0	460	1105	2857	4205	501	-19.0	200	1	1	524.1502	1	
40	0	529.3498	0	730	2058	2857	4205	501	-22.5	200	-1	1	530.2915	-1	
41	0	559.5301	0	730	2058	2857	4205	951	-15.0	200	0	0	560.7243	1	
42	0	571.1246	0	460	1105	2857	4205	751	-13.0	200	1	1	572.1770	1	
43	0	582.5340	0	460	1105	2857	4205	801	-19.0	200	1	1	583.4000	1	
44	0	602.4734	0	730	2058	2857	4205	1001	-21.0	200	0	0	603.3573	1	
45	0	610.3024	0	460	1105	2857	4205	501	-24.0	200	-1	0	610.9093	-1	
46	0	617.1803	0	460	1105	2857	4205	551	-13.0	200	1	1	618.1117	1	
47	0	622.7217	0	460	1105	2857	4205	901	-13.0	200	1	1	623.8411	1	
48	0	635.1233	0	460	1105	2857	4205	601	-13.0	200	1	1	636.3134	1	
49	0	642.9498	0	730	2058	2857	4205	701	-21.0	200	0	1	644.1580	0	
50	1	655.6598	0	730	2058	2857	4205	701	-21.0	200	0	0	656.5754	1	
51	0	663.4763	0	730	2058	2857	4205	501	-15.0	200	0	0	664.1381	1	
52	0	679.0902	0	730	2058	2857	4205	501	-22.5	200	-1	0	680.3707	-1	
53	0	700.9761	0	460	1105	2857	4205	751	-13.0	200	1	1	702.4734	1	
54	0	710.5809	1	460	1105	2857	4205	651	-13.0	200	1	1	711.5431	1	
55	0	717.0492	0	730	2058	2857	4205	801	-15.0	200	0	1	720.5629	0	
56	1	726.4530	0	730	2058	2857	4205	801	-15.0	200	0	0	727.5341	1	
57	0	733.9280	0	730	2058	2857	4205	501	-22.5	200	-1	0	735.7440	-1	
58	0	745.2573	0	460	1105	2857	4205	601	-13.0	200	1	0	746.1969	0	
59	1	751.9432	0	460	1105	2857	4205	601	-13.0	200	1	1	752.9553	1	
60	0	757.6184	0	460	1105	2857	4205	501	-24.0	200	-1	1	758.8393	-1	
61	0	763.9406	0	730	2058	2857	4205	701	-15.0	200	0	1	765.1190	0	
62	1	773.2729	0	730	2058	2857	4205	701	-15.0	200	0	0	774.1289	1	
63	0	808.3739	1	730	2058	2857	4205	951	-21.0	200	0	0	809.1461	1	
64	0	816.7790	0	730	2058	2857	4205	901	-15.0	200	0	0	820.4625	1	
65	0	826.5681	0	730	2058	2857	4205	551	-15.0	200	0	0	827.3597	1	
66	0	833.6433	0	460	1105	2857	4205	501	-19.0	200	1	1	834.9278	1	
67	0	842.9849	0	730	2058	2857	4205	551	-21.0	200	0	0	843.8268	1	
68	0	850.1199	0	460	1105	2857	4205	501	-24.0	200	-1	0	851.0367	-1	
69	0	855.5765	0	460	1105	2857	4205	751	-19.0	200	1	1	858.4348	1	
70	0	862.1958	0	730	2058	2857	4205	501	-22.5	200	-1	0	863.0297	-1	
71	0	886.5970	0	460	1105	2857	4205	901	-13.0	200	1	1	887.6522	1	
72	0	892.8044	0	460	1105	2857	4205	501	-24.0	200	-1	0	894.6732	-1	
73	0	900.8050	0	460	1105	2857	4205	601	-13.0	200	1	1	902.7052	1	
74	0	906.8136	0	730	2058	2857	4205	501	-22.5	200	-1	0	908.0679	-1	
75	0	913.8287	0	460	1105	2857	4205	651	-19.0	200	1	1	915.1025	1	
76	0	919.2856	0	730	2058	2857	4205	601	-15.0	200	0	0	920.0997	1	
77	0	926.1117	0	460	1105	2857	4205	751	-19.0	200	1	1	927.0995	1	
78	0	931.0635	1	730	2058	2857	4205	501	-15.0	200	0	0	931.8608	1	
79	0	937.7716	0	730	2058	2857	4205	951	-15.0	200	0	0	943.3235	1	
80	0	949.2337	0	460	1105	2857	4205	801	-13.0	200	1	0	949.7104	0	
81	1	959.0274	0	460	1105	2857	4205	801	-13.0	200	1	1	959.9419	1	
82	0	973.7405	0	730	2058	2857	4205	851	-15.0	200	0	0	975.2000	1	
83	0	980.0203	0	730	2058	2857	4205	501	-22.5	200	-1	0	980.9934	-1	
84	0	988.7549	0	730	2058	2857	4205	651	-21.0	200	0	0	989.4905	1	
85	0	997.1735	0	460	1105	2857	4205	701	-13.0	200	1	0	998.0797	0	
86	1	1008.9193	0	460	1105	2857	4205	701	-13.0	200	1	1	1009.9145	1	
87	0	1031.7628	0	460	1105	2857	4205	901	-19.0	200	1	1	1032.5660	1	
88	0	1037.8734	0	460	1105	2857	4205	501	-24.0	200	-1	1	1039.4808	-1	
89	0	1053.2153	0	730	2058	2857	4205	1001	-15.0	200	0	0	1054.6720	1	
90	0	1067.7055	0	730	2058	2857	4205	851	-21.0	200	0	1	1069.0141	0	
91	1	1086.3229	0	730	2058	2857	4205	851	-21.0	200	0	0	1087.2248	1	
92	0	1093.8830	0	460	1105	2857	4205	501	-24.0	200	-1	0	1094.9077	-1	
93	0	1103.8955	0	460	1105	2857	4205	501	-19.0	200	1	1	1105.0345	1	
94	0	1122.3299	0	730	2058	2857	4205	751	-21.0	200	0	0	1123.4234	1	
