Trial	CorrectionTrial?	StartTime	CenterReward?	F1	F2	F3	F4	HoldTime	Atten	Pitch	Side	Response	RespTime	Correct	
1	0	21.0128	0	730	2058	2857	4205	851	-15.0	200	0	1	21.4085	0	
2	1	39.0291	0	730	2058	2857	4205	851	-15.0	200	0	0	39.5381	1	
3	0	61.0762	0	460	1105	2857	4205	801	-13.0	200	1	1	61.4060	1	
4	0	76.6308	0	460	1105	2857	4205	901	-13.0	200	1	1	76.9432	1	
5	0	91.2534	0	730	2058	2857	4205	601	-21.0	200	0	0	92.1223	1	
6	0	104.6318	0	730	2058	2857	4205	501	-15.0	200	0	0	104.9707	1	
7	0	114.6804	0	730	2058	2857	4205	501	-22.5	200	-1	1	114.9714	-1	
8	0	121.7364	0	460	1105	2857	4205	551	-13.0	200	1	1	122.0825	1	
9	0	130.5523	0	460	1105	2857	4205	651	-13.0	200	1	1	130.8744	1	
10	0	135.2838	0	730	2058	2857	4205	501	-22.5	200	-1	1	135.5655	-1	
11	0	140.3908	0	460	1105	2857	4205	501	-24.0	200	-1	1	140.7029	-1	
12	0	154.1818	0	730	2058	2857	4205	651	-15.0	200	0	0	154.9527	1	
13	0	181.4447	0	460	1105	2857	4205	1001	-19.0	200	1	1	181.9520	1	
14	0	199.0086	0	730	2058	2857	4205	751	-21.0	200	0	0	199.8419	1	
15	0	213.6226	0	730	2058	2857	4205	951	-15.0	200	0	0	214.1867	1	
16	0	224.2016	0	460	1105	2857	4205	701	-19.0	200	1	1	224.5517	1	
17	0	229.3668	0	730	2058	2857	4205	501	-22.5	200	-1	1	229.6848	-1	
18	0	238.0930	0	460	1105	2857	4205	551	-13.0	200	1	1	238.4074	1	
19	0	244.5519	0	460	1105	2857	4205	501	-13.0	200	1	1	245.0388	1	
20	0	248.7585	0	460	1105	2857	4205	501	-24.0	200	-1	1	249.1120	-1	
21	0	253.2902	0	730	2058	2857	4205	551	-15.0	200	0	0	254.2600	1	
22	0	259.1831	0	730	2058	2857	4205	701	-15.0	200	0	0	259.6781	1	
23	0	271.8024	0	460	1105	2857	4205	851	-19.0	200	1	1	272.0606	1	
24	0	276.9724	0	730	2058	2857	4205	501	-15.0	200	0	0	277.3251	1	
25	0	281.9611	0	730	2058	2857	4205	501	-22.5	200	-1	1	282.3368	-1	
26	0	286.8722	0	460	1105	2857	4205	651	-13.0	200	1	1	287.1918	1	
27	0	290.9818	0	460	1105	2857	4205	501	-24.0	200	-1	1	291.4511	-1	
28	0	313.6622	0	730	2058	2857	4205	901	-15.0	200	0	0	314.5074	1	
29	0	323.4135	1	730	2058	2857	4205	751	-15.0	200	0	0	323.9483	1	
30	0	329.4055	0	730	2058	2857	4205	801	-21.0	200	0	0	332.1605	1	
31	0	340.3967	0	460	1105	2857	4205	701	-19.0	200	1	1	340.6824	1	
32	0	345.0310	0	460	1105	2857	4205	601	-19.0	200	1	0	345.7232	0	
33	1	354.1249	0	460	1105	2857	4205	601	-19.0	200	1	1	354.4794	1	
34	0	360.1296	0	460	1105	2857	4205	501	-24.0	200	-1	1	360.5669	-1	
35	0	371.9646	0	730	2058	2857	4205	801	-15.0	200	0	0	372.6821	1	
36	0	391.3161	0	460	1105	2857	4205	901	-19.0	200	1	1	391.6875	1	
37	0	395.9019	0	460	1105	2857	4205	551	-13.0	200	1	0	396.7928	0	
38	1	403.3115	1	460	1105	2857	4205	551	-13.0	200	1	1	403.6943	1	
39	0	407.5055	0	730	2058	2857	4205	851	-21.0	200	0	1	409.6359	0	
40	1	426.7341	0	730	2058	2857	4205	851	-21.0	200	0	0	427.1340	1	
41	0	433.2877	0	730	2058	2857	4205	501	-15.0	200	0	0	434.1347	1	
42	0	439.9107	0	730	2058	2857	4205	501	-22.5	200	-1	1	440.3970	-1	
43	0	460.6985	0	460	1105	2857	4205	951	-13.0	200	1	0	461.3200	0	
44	1	473.5023	0	460	1105	2857	4205	951	-13.0	200	1	1	473.9983	1	
45	0	478.3399	0	730	2058	2857	4205	501	-22.5	200	-1	1	478.7592	-1	
46	0	482.2761	0	730	2058	2857	4205	601	-21.0	200	0	0	482.9279	1	
47	0	488.1393	0	460	1105	2857	4205	501	-24.0	200	-1	1	488.6754	-1	
48	0	494.4405	0	460	1105	2857	4205	701	-19.0	200	1	1	494.9194	1	
49	0	520.7033	0	460	1105	2857	4205	1001	-13.0	200	1	0	521.1568	0	
50	1	532.0215	0	460	1105	2857	4205	1001	-13.0	200	1	1	532.4575	1	
51	0	537.2794	0	460	1105	2857	4205	551	-13.0	200	1	1	537.7035	1	
52	0	557.3029	0	730	2058	2857	4205	751	-21.0	200	0	0	557.7725	1	
53	0	568.7857	0	730	2058	2857	4205	801	-15.0	200	0	0	569.2177	1	
54	0	576.1073	1	730	2058	2857	4205	851	-21.0	200	0	0	576.8384	1	
55	0	582.2791	0	730	2058	2857	4205	501	-22.5	200	-1	0	584.5394	-1	
56	0	590.8795	0	460	1105	2857	4205	601	-19.0	200	1	1	591.3690	1	
57	0	594.6567	0	460	1105	2857	4205	501	-24.0	200	-1	1	594.9873	-1	
58	0	604.1634	0	730	2058	2857	4205	701	-15.0	200	0	0	604.5494	1	
59	0	647.0202	0	730	2058	2857	4205	1001	-21.0	200	0	0	648.3429	1	
60	0	652.7938	0	460	1105	2857	4205	551	-13.0	200	1	1	653.3086	1	
61	0	657.4451	1	460	1105	2857	4205	801	-13.0	200	1	1	657.8826	1	
62	0	661.5666	0	460	1105	2857	4205	951	-13.0	200	1	1	662.9795	1	
63	0	666.1004	0	730	2058	2857	4205	501	-22.5	200	-1	1	666.5689	-1	
64	0	678.2484	0	460	1105	2857	4205	901	-19.0	200	1	1	678.4949	1	
65	0	689.6338	0	730	2058	2857	4205	851	-21.0	200	0	0	689.9741	1	
66	0	694.4394	0	730	2058	2857	4205	601	-15.0	200	0	0	694.7863	1	
67	0	700.0941	0	730	2058	2857	4205	801	-15.0	200	0	0	700.4358	1	
68	0	708.6784	0	460	1105	2857	4205	651	-19.0	200	1	1	708.9793	1	
69	0	712.1534	0	460	1105	2857	4205	501	-24.0	200	-1	1	712.6223	-1	
70	0	716.4894	0	460	1105	2857	4205	701	-19.0	200	1	1	716.8629	1	
71	0	735.2536	0	460	1105	2857	4205	1001	-19.0	200	1	0	735.7051	0	
72	1	744.5886	0	460	1105	2857	4205	1001	-19.0	200	1	1	745.0248	1	
73	0	749.3944	0	460	1105	2857	4205	501	-24.0	200	-1	1	749.7579	-1	
74	0	752.9683	0	730	2058	2857	4205	501	-22.5	200	-1	1	753.4785	-1	
75	0	770.0055	0	730	2058	2857	4205	951	-15.0	200	0	0	770.5010	1	
76	0	776.7987	0	730	2058	2857	4205	501	-21.0	200	0	0	777.6227	1	
77	0	783.6919	0	730	2058	2857	4205	551	-21.0	200	0	0	784.2143	1	
78	0	792.2139	0	460	1105	2857	4205	1001	-13.0	200	1	1	792.5524	1	
79	0	795.5654	0	460	1105	2857	4205	501	-24.0	200	-1	1	795.9205	-1	
80	0	833.1620	0	730	2058	2857	4205	851	-15.0	200	0	0	833.9372	1	
