Trial	CorrectionTrial?	StartTime	CenterReward?	F1	F2	F3	F4	HoldTime	Atten	Pitch	Side	Response	RespTime	Correct	
1	0	5.783	0	730	2058	2857	4205	601	-16.5	200	0	1	6.767	0	
2	1	15.748	0	730	2058	2857	4205	601	-16.5	200	0	0	17.107	1	
3	0	28.506	0	460	1105	2857	4205	951	-17.5	200	1	0	29.569	0	
4	1	40.824	1	460	1105	2857	4205	951	-17.5	200	1	1	41.554	1	
5	0	47.698	0	730	2058	2857	4205	651	-18.0	200	0	0	48.521	1	
6	0	77.510	0	460	1105	2857	4205	1001	-13.0	200	1	0	78.410	0	
7	1	89.385	0	460	1105	2857	4205	1001	-13.0	200	1	1	90.060	1	
8	0	93.121	0	730	2058	2857	4205	501	-22.5	200	2	0	94.130	0	
9	0	99.548	0	460	1105	2857	4205	501	-24.0	200	3	1	99.655	0	
10	0	104.891	0	460	1105	2857	4205	501	-24.0	200	3	1	106.045	0	
11	0	109.251	0	730	2058	2857	4205	501	-22.5	200	2	1	109.991	0	
12	1	116.142	0	730	2058	2857	4205	501	-22.5	200	2	0	117.130	0	
13	0	131.501	0	460	1105	2857	4205	851	-17.5	200	1	0	131.943	0	
14	1	140.292	0	460	1105	2857	4205	851	-17.5	200	1	0	140.618	0	
15	1	149.637	0	460	1105	2857	4205	851	-17.5	200	1	0	150.449	0	
16	1	158.019	1	460	1105	2857	4205	851	-17.5	200	1	0	159.129	0	
17	1	166.427	0	460	1105	2857	4205	851	-17.5	200	1	0	167.588	0	
18	1	175.544	0	460	1105	2857	4205	851	-17.5	200	1	1	184.579	1	
19	0	186.170	0	730	2058	2857	4205	701	-18.0	200	0	0	186.598	1	
20	0	195.759	0	730	2058	2857	4205	501	-22.5	200	2	0	196.386	0	
21	0	205.458	1	730	2058	2857	4205	651	-16.5	200	0	0	206.430	1	
22	0	216.059	0	460	1105	2857	4205	501	-13.0	200	1	0	222.882	0	
23	1	239.103	0	460	1105	2857	4205	501	-13.0	200	1	1	240.357	1	
24	0	248.303	0	730	2058	2857	4205	801	-21.0	200	0	0	249.775	1	
25	0	258.801	0	460	1105	2857	4205	501	-24.0	200	3	0	259.789	0	
26	1	270.488	0	460	1105	2857	4205	501	-24.0	200	3	1	271.163	0	
27	0	280.813	0	460	1105	2857	4205	851	-17.5	200	1	1	281.741	1	
28	0	294.760	0	460	1105	2857	4205	501	-24.0	200	3	1	296.124	0	
29	0	311.836	0	730	2058	2857	4205	601	-19.5	200	0	0	312.711	1	
30	0	321.556	0	730	2058	2857	4205	501	-22.5	200	2	0	322.940	0	
31	0	338.962	0	460	1105	2857	4205	1001	-19.0	200	1	1	339.438	1	
32	0	352.401	0	460	1105	2857	4205	1001	-13.0	200	1	1	352.795	1	
33	0	356.661	0	730	2058	2857	4205	701	-21.0	200	0	0	357.757	1	
34	0	365.592	0	460	1105	2857	4205	501	-24.0	200	3	0	366.490	0	
35	1	380.949	0	460	1105	2857	4205	501	-24.0	200	3	1	381.781	0	
36	0	389.786	0	460	1105	2857	4205	501	-24.0	200	3	1	390.822	0	
37	0	400.210	0	460	1105	2857	4205	801	-19.0	200	1	1	400.821	1	
38	0	410.882	0	730	2058	2857	4205	501	-19.5	200	0	0	411.668	1	
39	0	419.855	0	730	2058	2857	4205	501	-22.5	200	2	0	420.320	0	
40	0	434.782	0	730	2058	2857	4205	651	-15.0	200	0	0	435.469	1	
41	0	445.217	0	460	1105	2857	4205	551	-19.0	200	1	1	446.396	1	
42	0	452.826	0	730	2058	2857	4205	501	-22.5	200	2	1	453.699	0	
43	1	462.587	1	730	2058	2857	4205	501	-22.5	200	2	0	463.806	0	
44	0	471.246	0	460	1105	2857	4205	501	-24.0	200	3	0	473.159	0	
45	1	480.304	0	460	1105	2857	4205	501	-24.0	200	3	1	481.700	0	
46	0	492.176	0	730	2058	2857	4205	901	-18.0	200	0	0	493.127	1	
47	0	500.439	0	730	2058	2857	4205	501	-22.5	200	2	0	502.318	0	
48	0	510.126	0	730	2058	2857	4205	751	-18.0	200	0	0	510.797	1	
49	0	519.318	0	730	2058	2857	4205	701	-19.5	200	0	0	519.861	1	
50	0	531.845	0	730	2058	2857	4205	501	-22.5	200	2	1	533.100	0	
51	1	540.746	0	730	2058	2857	4205	501	-22.5	200	2	0	541.732	0	
52	0	550.151	0	460	1105	2857	4205	801	-19.0	200	1	1	551.497	1	
53	0	562.034	1	460	1105	2857	4205	851	-13.0	200	1	0	578.059	0	
54	1	586.370	1	460	1105	2857	4205	851	-13.0	200	1	1	587.527	1	
55	0	591.117	0	460	1105	2857	4205	951	-16.0	200	1	1	591.785	1	
56	0	602.636	0	460	1105	2857	4205	501	-24.0	200	3	1	603.684	0	
57	0	609.251	0	460	1105	2857	4205	951	-13.0	200	1	1	610.269	1	
58	0	618.302	0	460	1105	2857	4205	801	-17.5	200	1	1	619.199	1	
59	0	632.621	0	730	2058	2857	4205	501	-22.5	200	2	1	633.838	0	
60	1	640.549	0	730	2058	2857	4205	501	-22.5	200	2	0	641.410	0	
61	0	646.827	0	460	1105	2857	4205	601	-16.0	200	1	0	648.476	0	
62	1	654.853	0	460	1105	2857	4205	601	-16.0	200	1	1	655.821	1	
63	0	663.921	0	460	1105	2857	4205	501	-24.0	200	3	1	665.119	0	
64	0	673.243	0	460	1105	2857	4205	501	-24.0	200	3	1	673.909	0	
65	0	681.901	0	730	2058	2857	4205	501	-22.5	200	2	0	683.088	0	
66	0	691.388	0	730	2058	2857	4205	751	-16.5	200	0	0	691.826	1	
67	0	703.158	0	730	2058	2857	4205	901	-16.5	200	0	0	703.723	1	
68	0	712.162	1	730	2058	2857	4205	501	-19.5	200	0	0	713.249	1	
69	0	720.116	0	730	2058	2857	4205	701	-18.0	200	0	0	730.606	1	
70	0	741.052	0	460	1105	2857	4205	851	-19.0	200	1	1	741.484	1	
71	0	750.042	0	730	2058	2857	4205	601	-21.0	200	0	0	752.618	1	
72	0	760.342	0	460	1105	2857	4205	501	-24.0	200	3	1	761.202	0	
73	0	769.219	0	730	2058	2857	4205	501	-22.5	200	2	1	769.992	0	
74	1	775.849	0	730	2058	2857	4205	501	-22.5	200	2	0	776.746	0	
75	0	782.534	0	460	1105	2857	4205	501	-24.0	200	3	0	783.498	0	
76	1	797.358	0	460	1105	2857	4205	501	-24.0	200	3	1	807.727	0	
77	0	810.573	0	460	1105	2857	4205	751	-16.0	200	1	1	811.903	1	
78	0	820.875	0	730	2058	2857	4205	501	-16.5	200	0	1	823.735	0	
