Trial	CorrectionTrial?	StartTime	CenterReward?	F1	F2	F3	F4	HoldTime	Atten	Pitch	Side	Response	RespTime	Correct	
1	0	5.0162	1	730	2058	2857	4205	851	-15.0	200	0	0	5.0853	1	
2	0	8.4397	0	460	1105	2857	4205	651	-13.0	200	1	0	8.4650	0	
3	1	17.7483	0	460	1105	2857	4205	651	-13.0	200	1	0	17.8358	0	
4	1	23.6442	0	460	1105	2857	4205	651	-13.0	200	1	0	23.6734	0	
5	1	29.8564	0	460	1105	2857	4205	651	-13.0	200	1	0	29.9718	0	
6	1	39.1657	0	460	1105	2857	4205	651	-13.0	200	1	0	39.3427	0	
7	1	48.2446	0	460	1105	2857	4205	651	-13.0	200	1	1	48.8638	1	
8	0	54.3284	0	730	2058	2857	4205	501	-22.5	200	-1	1	54.8040	-1	
9	0	63.1136	0	730	2058	2857	4205	701	-15.0	200	0	0	63.5226	1	
10	0	68.7872	1	460	1105	2857	4205	751	-19.0	200	1	1	69.6158	1	
11	0	74.1114	0	730	2058	2857	4205	951	-21.0	200	0	0	76.2256	1	
12	0	86.6256	0	460	1105	2857	4205	901	-13.0	200	1	1	86.9838	1	
13	0	91.0661	0	730	2058	2857	4205	501	-21.0	200	0	0	91.4114	1	
14	0	96.5011	1	730	2058	2857	4205	551	-15.0	200	0	0	96.7996	1	
15	0	101.7919	0	730	2058	2857	4205	551	-15.0	200	0	0	104.4211	1	
16	0	109.4414	0	460	1105	2857	4205	601	-19.0	200	1	1	110.0393	1	
17	0	115.8060	0	460	1105	2857	4205	501	-24.0	200	-1	1	116.2718	-1	
18	0	120.1131	0	730	2058	2857	4205	501	-22.5	200	-1	1	120.4675	-1	
19	0	126.5279	0	460	1105	2857	4205	751	-19.0	200	1	1	126.7091	1	
20	0	133.8498	0	460	1105	2857	4205	801	-19.0	200	1	1	134.1131	1	
21	0	138.7531	0	730	2058	2857	4205	501	-15.0	200	0	0	139.2405	1	
22	0	162.1386	0	730	2058	2857	4205	951	-21.0	200	0	0	162.5822	1	
23	0	168.2645	0	730	2058	2857	4205	501	-22.5	200	-1	1	168.7060	-1	
24	0	178.0494	0	460	1105	2857	4205	651	-19.0	200	1	1	178.3643	1	
25	0	186.3222	0	460	1105	2857	4205	1001	-13.0	200	1	1	186.5843	1	
26	0	197.0201	1	460	1105	2857	4205	851	-19.0	200	1	1	197.3398	1	
27	0	202.0321	0	460	1105	2857	4205	501	-24.0	200	-1	1	203.8347	-1	
28	0	210.9810	0	730	2058	2857	4205	601	-15.0	200	0	0	211.2797	1	
29	0	220.5443	1	730	2058	2857	4205	801	-15.0	200	0	0	220.9274	1	
30	0	225.2918	0	460	1105	2857	4205	501	-24.0	200	-1	1	228.1499	-1	
31	0	233.2791	0	460	1105	2857	4205	501	-19.0	200	1	1	233.6297	1	
32	0	246.3812	0	460	1105	2857	4205	951	-19.0	200	1	1	246.6246	1	
33	0	252.3188	0	460	1105	2857	4205	751	-19.0	200	1	1	252.6238	1	
34	0	255.9155	0	730	2058	2857	4205	501	-22.5	200	-1	1	256.2109	-1	
35	0	269.4615	0	730	2058	2857	4205	951	-21.0	200	0	0	269.9176	1	
36	0	273.5493	0	730	2058	2857	4205	651	-15.0	200	0	0	274.7504	1	
37	0	281.7453	0	730	2058	2857	4205	901	-15.0	200	0	0	282.1904	1	
38	0	286.3800	0	460	1105	2857	4205	601	-19.0	200	1	0	286.8590	0	
39	1	293.9208	0	460	1105	2857	4205	601	-19.0	200	1	1	294.3402	1	
40	0	297.2644	0	730	2058	2857	4205	501	-22.5	200	-1	1	297.6518	-1	
41	0	308.8573	0	460	1105	2857	4205	551	-13.0	200	1	1	309.1730	1	
42	0	315.1393	0	460	1105	2857	4205	751	-19.0	200	1	1	315.4432	1	
43	0	322.2096	0	730	2058	2857	4205	701	-21.0	200	0	0	322.5280	1	
44	0	328.4925	0	460	1105	2857	4205	501	-24.0	200	-1	1	329.0183	-1	
45	0	332.3232	0	730	2058	2857	4205	501	-15.0	200	0	0	333.0096	1	
46	0	345.2283	0	460	1105	2857	4205	951	-19.0	200	1	1	345.5275	1	
47	0	351.4827	0	730	2058	2857	4205	651	-15.0	200	0	0	351.9243	1	
48	0	360.7857	0	730	2058	2857	4205	851	-15.0	200	0	0	361.1289	1	
49	0	367.4633	0	730	2058	2857	4205	801	-15.0	200	0	0	367.7510	1	
50	0	371.5774	0	460	1105	2857	4205	501	-24.0	200	-1	1	371.9120	-1	
51	0	376.1564	0	730	2058	2857	4205	501	-22.5	200	-1	1	376.5150	-1	
52	0	382.7463	0	460	1105	2857	4205	701	-19.0	200	1	1	382.9984	1	
53	0	386.0985	0	460	1105	2857	4205	551	-19.0	200	1	1	386.3959	1	
54	0	391.9332	0	730	2058	2857	4205	601	-15.0	200	0	0	392.2946	1	
55	0	398.6679	0	460	1105	2857	4205	501	-24.0	200	-1	1	399.1581	-1	
56	0	404.6412	0	460	1105	2857	4205	701	-13.0	200	1	1	404.8686	1	
57	0	408.1709	0	730	2058	2857	4205	501	-22.5	200	-1	1	408.6048	-1	
58	0	412.1784	0	460	1105	2857	4205	551	-13.0	200	1	1	412.4971	1	
59	0	423.4131	1	730	2058	2857	4205	801	-21.0	200	0	0	423.7773	1	
60	0	428.2481	0	730	2058	2857	4205	601	-21.0	200	0	0	430.8614	1	
61	0	440.7931	0	460	1105	2857	4205	501	-19.0	200	1	0	443.1985	0	
62	1	450.6005	1	460	1105	2857	4205	501	-19.0	200	1	1	453.7448	1	
63	0	463.2971	0	730	2058	2857	4205	751	-21.0	200	0	0	463.6757	1	
64	0	474.3585	0	460	1105	2857	4205	1001	-19.0	200	1	1	474.7175	1	
65	0	489.0329	0	730	2058	2857	4205	851	-15.0	200	0	0	489.4577	1	
66	0	500.1796	0	460	1105	2857	4205	901	-19.0	200	1	1	500.5323	1	
67	0	503.9297	0	730	2058	2857	4205	501	-22.5	200	-1	1	504.2254	-1	
68	0	510.4236	0	730	2058	2857	4205	801	-15.0	200	0	0	510.9477	1	
69	0	515.2569	0	460	1105	2857	4205	501	-24.0	200	-1	1	516.0158	-1	
70	0	519.9196	1	460	1105	2857	4205	701	-13.0	200	1	1	520.3039	1	
71	0	524.1232	0	460	1105	2857	4205	601	-13.0	200	1	1	525.3785	1	
72	0	529.3257	0	460	1105	2857	4205	851	-13.0	200	1	1	529.7856	1	
73	0	543.0725	0	730	2058	2857	4205	951	-15.0	200	0	0	543.3655	1	
74	0	547.8151	0	730	2058	2857	4205	501	-21.0	200	0	0	548.1217	1	
75	0	554.9116	0	730	2058	2857	4205	651	-21.0	200	0	0	555.5099	1	
76	0	561.3287	0	730	2058	2857	4205	501	-22.5	200	-1	1	561.8425	-1	
77	0	565.3470	0	460	1105	2857	4205	501	-24.0	200	-1	1	565.7893	-1	
78	0	574.4191	0	460	1105	2857	4205	551	-13.0	200	1	1	574.7947	1	
79	0	578.0152	0	730	2058	2857	4205	501	-15.0	200	0	0	578.6148	1	
80	0	582.0584	1	730	2058	2857	4205	651	-15.0	200	0	0	582.4850	1	
81	0	587.0808	0	730	2058	2857	4205	501	-22.5	200	-1	0	589.6613	-1	
82	0	593.4892	0	460	1105	2857	4205	501	-24.0	200	-1	1	594.0227	-1	
83	0	603.3738	0	730	2058	2857	4205	801	-15.0	200	0	0	603.7515	1	
84	0	607.2137	0	460	1105	2857	4205	701	-19.0	200	1	1	607.6764	1	
85	0	615.3132	0	460	1105	2857	4205	851	-19.0	200	1	1	615.6283	1	
86	0	626.2704	0	460	1105	2857	4205	951	-13.0	200	1	1	626.5732	1	
87	0	630.3982	0	460	1105	2857	4205	1001	-19.0	200	1	1	630.8514	1	
88	0	638.3298	0	730	2058	2857	4205	701	-21.0	200	0	0	638.5796	1	
89	0	642.1513	0	460	1105	2857	4205	501	-24.0	200	-1	1	642.6707	-1	
90	0	646.5428	1	460	1105	2857	4205	901	-13.0	200	1	1	647.3776	1	
91	0	650.1702	0	730	2058	2857	4205	951	-21.0	200	0	1	652.1951	0	
92	1	670.6669	0	730	2058	2857	4205	951	-21.0	200	0	0	671.0561	1	
93	0	675.1420	0	730	2058	2857	4205	501	-22.5	200	-1	1	676.4039	-1	
94	0	679.4220	1	730	2058	2857	4205	751	-15.0	200	0	0	680.0850	1	
95	0	683.7130	0	460	1105	2857	4205	501	-19.0	200	1	1	686.3265	1	
96	0	689.2955	0	460	1105	2857	4205	501	-24.0	200	-1	1	689.8692	-1	
97	0	694.8976	0	460	1105	2857	4205	551	-13.0	200	1	1	695.2885	1	
98	0	698.8512	0	730	2058	2857	4205	501	-22.5	200	-1	0	699.7668	-1	
99	0	703.0686	0	730	2058	2857	4205	751	-15.0	200	0	0	703.6100	1	
100	0	709.6191	0	460	1105	2857	4205	501	-13.0	200	1	1	710.0764	1	
101	0	713.6315	0	460	1105	2857	4205	651	-13.0	200	1	1	714.0195	1	
102	0	728.2756	0	730	2058	2857	4205	951	-21.0	200	0	0	728.5835	1	
103	0	736.1749	0	730	2058	2857	4205	601	-15.0	200	0	0	736.6499	1	
104	0	747.2221	0	460	1105	2857	4205	701	-13.0	200	1	1	747.7146	1	
105	0	762.5883	0	730	2058	2857	4205	851	-15.0	200	0	0	763.0496	1	
106	0	766.8435	0	730	2058	2857	4205	501	-22.5	200	-1	1	767.4085	-1	
107	0	774.5497	1	460	1105	2857	4205	551	-19.0	200	1	1	774.9752	1	
108	0	778.2871	0	460	1105	2857	4205	501	-24.0	200	-1	1	780.2638	-1	
109	0	787.3799	1	730	2058	2857	4205	851	-15.0	200	0	0	787.6935	1	
110	0	791.8256	1	460	1105	2857	4205	801	-13.0	200	1	0	795.9422	0	
111	1	805.8248	0	460	1105	2857	4205	801	-13.0	200	1	1	806.2502	1	
112	0	819.9010	0	730	2058	2857	4205	951	-15.0	200	0	0	820.3464	1	
113	0	823.9323	0	460	1105	2857	4205	751	-19.0	200	1	1	824.6221	1	
114	0	828.3449	0	730	2058	2857	4205	551	-15.0	200	0	0	828.9119	1	
115	0	832.2508	0	460	1105	2857	4205	601	-13.0	200	1	1	833.1776	1	
116	0	838.1547	0	460	1105	2857	4205	501	-24.0	200	-1	1	838.7181	-1	
117	0	842.3170	0	730	2058	2857	4205	501	-15.0	200	0	0	843.1434	1	
118	0	846.1233	0	730	2058	2857	4205	501	-22.5	200	-1	1	846.8061	-1	
119	0	850.6397	0	460	1105	2857	4205	651	-19.0	200	1	0	851.4777	0	
120	1	863.0655	0	460	1105	2857	4205	651	-19.0	200	1	1	863.5471	1	
121	0	869.5291	0	730	2058	2857	4205	751	-15.0	200	0	1	869.8840	0	
122	1	876.1534	0	730	2058	2857	4205	751	-15.0	200	0	1	876.9104	0	
123	1	915.5751	1	730	2058	2857	4205	751	-15.0	200	0	0	916.2460	1	
124	0	921.2726	0	730	2058	2857	4205	501	-15.0	200	0	0	924.6733	1	
125	0	931.8058	0	730	2058	2857	4205	551	-21.0	200	0	-1	-1.0000	0	
