Trial	CorrectionTrial?	StartTime	CenterReward?	F1	F2	F3	F4	HoldTime	Atten	Pitch	Side	Response	RespTime	Correct	
1	0	5.3840	0	936	1551	2975	4263	521	-17.0	330	1	1	6.2330	1	
2	0	13.6988	0	936	1551	2975	4263	501	-17.0	200	1	1	16.2945	1	
3	0	25.1209	1	936	1551	2975	4263	541	-17.0	200	1	1	26.0248	1	
4	0	33.7669	1	936	1551	2975	4263	551	-17.0	330	1	1	34.6039	1	
5	0	41.9043	0	437	2761	2975	4263	531	-12.0	200	0	1	44.4734	0	
6	1	56.5782	0	437	2761	2975	4263	531	-12.0	200	0	1	57.3169	0	
7	1	66.0308	0	437	2761	2975	4263	531	-12.0	200	0	0	66.7252	1	
8	0	77.3782	0	437	2761	2975	4263	581	-12.0	330	0	1	78.0760	0	
9	1	92.3151	0	437	2761	2975	4263	581	-12.0	330	0	1	93.1168	0	
10	1	101.6824	1	437	2761	2975	4263	581	-12.0	330	0	0	102.6618	1	
11	0	111.8070	0	936	1551	2975	4263	561	-17.0	200	1	1	112.5002	1	
12	0	119.3123	1	437	2761	2975	4263	511	-12.0	330	0	0	121.0852	1	
13	0	129.8630	1	437	2761	2975	4263	571	-12.0	200	0	0	130.8227	1	
14	0	140.0902	1	437	2761	2975	4263	591	-12.0	330	0	1	148.4954	0	
15	1	168.4847	0	437	2761	2975	4263	591	-12.0	330	0	0	169.1173	1	
16	0	177.8041	1	936	1551	2975	4263	601	-17.0	200	1	1	178.8756	1	
17	0	187.6490	1	437	2761	2975	4263	511	-12.0	330	0	0	188.4198	1	
18	0	196.3782	0	437	2761	2975	4263	591	-12.0	200	0	0	196.9506	1	
19	0	205.9429	1	936	1551	2975	4263	521	-17.0	330	1	0	208.2357	0	
20	1	223.2478	0	936	1551	2975	4263	521	-17.0	330	1	1	223.7927	1	
21	0	231.1097	0	936	1551	2975	4263	531	-17.0	200	1	1	231.5363	1	
22	0	239.4841	0	437	2761	2975	4263	501	-12.0	330	0	1	240.2242	0	
23	1	248.3470	0	437	2761	2975	4263	501	-12.0	330	0	0	249.5963	1	
24	0	264.5387	0	936	1551	2975	4263	551	-17.0	330	1	1	265.4904	1	
25	0	272.5009	1	437	2761	2975	4263	541	-12.0	200	0	1	273.3597	0	
26	1	285.0332	0	437	2761	2975	4263	541	-12.0	200	0	0	285.8605	1	
27	0	293.8918	0	936	1551	2975	4263	561	-17.0	200	1	1	294.4699	1	
28	0	303.0430	0	437	2761	2975	4263	571	-12.0	330	0	1	303.9166	0	
29	1	314.5198	0	437	2761	2975	4263	571	-12.0	330	0	1	315.4824	0	
30	1	323.4755	0	437	2761	2975	4263	571	-12.0	330	0	0	324.0543	1	
31	0	330.3766	0	437	2761	2975	4263	561	-12.0	200	0	1	331.3254	0	
32	1	340.1593	1	437	2761	2975	4263	561	-12.0	200	0	0	340.7435	1	
33	0	348.8209	0	437	2761	2975	4263	511	-12.0	330	0	0	350.7844	1	
34	0	361.9491	1	936	1551	2975	4263	541	-17.0	200	1	1	362.6041	1	
35	0	369.7878	0	437	2761	2975	4263	531	-12.0	330	0	1	373.9957	0	
36	1	383.8719	1	437	2761	2975	4263	531	-12.0	330	0	0	388.2029	1	
37	0	403.7154	0	437	2761	2975	4263	551	-12.0	330	0	0	404.7922	1	
38	0	412.6455	0	936	1551	2975	4263	581	-17.0	200	1	1	413.6446	1	
39	0	419.3418	0	437	2761	2975	4263	591	-12.0	200	0	1	419.7960	0	
40	1	436.8714	0	437	2761	2975	4263	591	-12.0	200	0	0	437.3113	1	
41	0	444.8613	1	936	1551	2975	4263	571	-17.0	330	1	1	445.3785	1	
42	0	452.5235	0	936	1551	2975	4263	521	-17.0	330	1	1	455.0087	1	
43	0	463.0357	0	936	1551	2975	4263	601	-17.0	200	1	1	463.7484	1	
44	0	471.4713	1	936	1551	2975	4263	501	-17.0	200	1	1	471.9034	1	
45	0	479.4109	0	437	2761	2975	4263	511	-12.0	330	0	1	481.6803	0	
46	1	499.2677	0	437	2761	2975	4263	511	-12.0	330	0	0	499.6767	1	
47	0	508.9954	0	936	1551	2975	4263	551	-17.0	200	1	1	509.5286	1	
48	0	518.8680	1	437	2761	2975	4263	531	-12.0	330	0	0	519.5536	1	
49	0	531.7226	1	936	1551	2975	4263	601	-17.0	200	1	1	536.2316	1	
50	0	542.9380	0	437	2761	2975	4263	541	-12.0	330	0	1	543.8129	0	
51	1	553.1100	1	437	2761	2975	4263	541	-12.0	330	0	0	553.7559	1	
52	0	561.4794	0	936	1551	2975	4263	571	-17.0	330	1	1	565.5581	1	
53	0	574.5838	0	437	2761	2975	4263	521	-12.0	200	0	1	575.1364	0	
54	1	585.2075	0	437	2761	2975	4263	521	-12.0	200	0	0	585.6943	1	
55	0	592.5630	0	936	1551	2975	4263	581	-17.0	330	1	1	593.2195	1	
56	0	600.3762	0	437	2761	2975	4263	591	-12.0	200	0	1	601.1585	0	
57	1	618.2944	0	437	2761	2975	4263	591	-12.0	200	0	0	618.8277	1	
58	0	626.6302	1	437	2761	2975	4263	521	-12.0	330	0	1	627.4819	0	
59	1	638.1112	0	437	2761	2975	4263	521	-12.0	330	0	0	638.6104	1	
60	0	646.6462	1	437	2761	2975	4263	581	-12.0	200	0	1	647.5555	0	
61	1	663.7670	1	437	2761	2975	4263	581	-12.0	200	0	0	664.3080	1	
62	0	672.4080	0	936	1551	2975	4263	531	-17.0	200	1	1	673.8053	1	
63	0	681.1832	1	437	2761	2975	4263	601	-12.0	330	0	0	682.4551	1	
64	0	691.8549	1	936	1551	2975	4263	591	-17.0	200	1	1	698.5952	1	
65	0	708.1388	0	437	2761	2975	4263	541	-12.0	330	0	1	708.8983	0	
66	1	719.6693	1	437	2761	2975	4263	541	-12.0	330	0	0	720.2266	1	
67	0	727.5888	0	936	1551	2975	4263	551	-17.0	200	1	1	728.6874	1	
68	0	737.5508	1	437	2761	2975	4263	561	-12.0	330	0	1	743.9050	0	
69	1	758.9537	1	437	2761	2975	4263	561	-12.0	330	0	0	759.4732	1	
70	0	766.7316	0	936	1551	2975	4263	501	-17.0	330	1	1	770.5888	1	
71	0	780.8965	1	936	1551	2975	4263	571	-17.0	200	1	1	781.5002	1	
72	0	792.9409	0	437	2761	2975	4263	541	-12.0	200	0	1	794.9502	0	
73	1	806.7597	1	437	2761	2975	4263	541	-12.0	200	0	0	807.1403	1	
74	0	813.0791	0	437	2761	2975	4263	521	-12.0	330	0	0	816.9477	1	
75	0	827.0782	1	936	1551	2975	4263	561	-17.0	330	1	1	828.0955	1	
76	0	838.7566	0	437	2761	2975	4263	551	-12.0	200	0	1	842.4603	0	
77	1	854.1766	0	437	2761	2975	4263	551	-12.0	200	0	0	854.6646	1	
78	0	860.9904	0	437	2761	2975	4263	531	-12.0	330	0	0	861.8471	1	
79	0	870.0468	0	936	1551	2975	4263	591	-17.0	200	1	1	870.9208	1	
80	0	880.7895	0	936	1551	2975	4263	571	-17.0	330	1	1	881.1662	1	
81	0	891.4181	0	437	2761	2975	4263	601	-12.0	200	0	1	891.8774	0	
82	1	911.5374	1	437	2761	2975	4263	601	-12.0	200	0	0	912.1944	1	
83	0	918.9562	1	936	1551	2975	4263	501	-17.0	330	1	0	923.3437	0	
84	1	931.2564	0	936	1551	2975	4263	501	-17.0	330	1	1	931.7115	1	
85	0	938.1241	0	936	1551	2975	4263	581	-17.0	200	1	1	938.6539	1	
86	0	949.1243	0	437	2761	2975	4263	501	-12.0	330	0	1	949.7978	0	
87	1	963.0043	0	437	2761	2975	4263	501	-12.0	330	0	0	963.4981	1	
88	0	974.0511	0	437	2761	2975	4263	521	-12.0	200	0	0	974.6290	1	
89	0	993.6281	1	936	1551	2975	4263	591	-17.0	200	1	1	994.0458	1	
90	0	1007.4037	1	437	2761	2975	4263	551	-12.0	330	0	1	1013.7519	0	
91	1	1024.2925	0	437	2761	2975	4263	551	-12.0	330	0	0	1025.1207	1	
92	0	1030.5462	1	936	1551	2975	4263	561	-17.0	200	1	1	1031.7124	1	
93	0	1041.0403	1	936	1551	2975	4263	541	-17.0	330	1	1	1045.7478	1	
94	0	1056.2558	0	437	2761	2975	4263	581	-12.0	200	0	0	1057.1488	1	
95	0	1065.4425	0	936	1551	2975	4263	601	-17.0	330	1	1	1066.6223	1	
96	0	1086.5557	1	936	1551	2975	4263	511	-17.0	330	1	1	1091.1379	1	
97	0	1100.1760	0	437	2761	2975	4263	571	-12.0	200	0	0	1101.3311	1	
98	0	1108.9103	0	936	1551	2975	4263	521	-17.0	200	1	0	1109.9435	0	
99	1	1118.8905	1	936	1551	2975	4263	521	-17.0	200	1	1	1119.5653	1	
100	0	1129.1506	1	936	1551	2975	4263	581	-17.0	330	1	1	1133.3674	1	
101	0	1142.4009	0	437	2761	2975	4263	511	-12.0	200	0	0	1143.8485	1	
102	0	1152.5567	1	437	2761	2975	4263	561	-12.0	330	0	0	1153.4741	1	
103	0	1162.1986	0	437	2761	2975	4263	541	-12.0	330	0	0	1166.2447	1	
104	0	1174.7897	0	437	2761	2975	4263	601	-12.0	200	0	0	1176.0785	1	
105	0	1183.2435	1	936	1551	2975	4263	591	-17.0	200	1	1	1189.0396	1	
106	0	1198.1235	1	936	1551	2975	4263	571	-17.0	330	1	1	1198.4966	1	
107	0	1211.4407	1	437	2761	2975	4263	551	-12.0	200	0	0	1217.4732	1	
108	0	1224.1009	0	936	1551	2975	4263	501	-17.0	330	1	1	1225.0341	1	
109	0	1232.7340	0	936	1551	2975	4263	551	-17.0	330	1	1	1233.4138	1	
110	0	1241.6270	1	936	1551	2975	4263	501	-17.0	200	1	0	1242.5508	0	
111	1	1258.7638	1	936	1551	2975	4263	501	-17.0	200	1	1	1259.4824	1	
112	0	1269.7977	0	936	1551	2975	4263	601	-17.0	200	1	1	1272.0792	1	
113	0	1283.9870	0	936	1551	2975	4263	561	-17.0	330	1	1	1284.8932	1	
114	0	1293.5114	0	437	2761	2975	4263	511	-12.0	330	0	1	1294.2661	0	
115	1	1303.8318	0	437	2761	2975	4263	511	-12.0	330	0	1	1304.4408	0	
116	1	1312.7967	1	437	2761	2975	4263	511	-12.0	330	0	1	1313.3314	0	
117	1	1334.3841	1	437	2761	2975	4263	511	-12.0	330	0	0	1335.0629	1	
118	0	1341.6321	1	437	2761	2975	4263	531	-12.0	200	0	1	1346.7122	0	
119	1	1385.3979	1	437	2761	2975	4263	531	-12.0	200	0	0	1386.6061	1	
120	0	1395.9137	0	936	1551	2975	4263	591	-17.0	330	1	1	1397.6737	1	
121	0	1407.9589	1	437	2761	2975	4263	571	-12.0	200	0	0	1413.5747	1	
122	0	1423.8569	0	437	2761	2975	4263	541	-12.0	200	0	1	1424.6730	0	
