Trial	CorrectionTrial?	StartTime	CenterReward?	F1	F2	F3	F4	HoldTime	Atten	Pitch	Side	Response	RespTime	Correct	
1	0	10.4171	0	936	1551	2975	4263	581	-17.0	149	1	0	14.0708	0	
2	1	23.6419	0	936	1551	2975	4263	581	-17.0	149	1	0	26.1340	0	
3	1	33.9636	0	936	1551	2975	4263	581	-17.0	149	1	1	34.6850	1	
4	0	41.5994	0	437	2761	2975	4263	531	-12.0	200	0	1	42.2996	0	
5	1	57.2418	0	437	2761	2975	4263	531	-12.0	200	0	0	58.5709	1	
6	0	70.5157	0	437	2761	2975	4263	551	-12.0	263	0	0	71.8206	1	
7	0	86.0969	1	437	2761	2975	4263	501	-12.0	263	0	1	87.4084	0	
8	1	102.5088	0	437	2761	2975	4263	501	-12.0	263	0	0	104.3513	1	
9	0	118.9509	0	640	2069	2857	4205	501	-12.0	200	-1	1	119.5403	-1	
10	0	127.9442	0	437	2761	2975	4263	571	-12.0	149	0	1	128.9023	0	
11	1	144.3391	0	437	2761	2975	4263	571	-12.0	149	0	0	145.2347	1	
12	0	156.5194	0	936	1551	2975	4263	561	-17.0	263	1	1	157.1541	1	
13	0	165.8246	1	936	1551	2975	4263	601	-17.0	149	1	1	166.4705	1	
14	0	182.8572	0	936	1551	2975	4263	591	-17.0	200	1	1	187.6858	1	
15	0	198.6434	0	640	2069	2857	4205	501	-12.0	200	-1	1	199.8649	-1	
16	0	209.6203	0	437	2761	2975	4263	591	-12.0	263	0	1	210.6124	0	
17	1	218.5605	1	437	2761	2975	4263	591	-12.0	263	0	0	219.0728	1	
18	0	230.2994	0	437	2761	2975	4263	581	-12.0	200	0	0	233.2210	1	
19	0	243.7009	1	936	1551	2975	4263	501	-17.0	200	1	1	244.7790	1	
20	0	257.4425	0	437	2761	2975	4263	601	-12.0	263	0	1	261.8338	0	
21	1	270.4305	0	437	2761	2975	4263	601	-12.0	263	0	0	271.1455	1	
22	0	283.1251	0	936	1551	2975	4263	511	-17.0	149	1	1	284.2775	1	
23	0	294.1518	0	936	1551	2975	4263	571	-17.0	149	1	1	294.7732	1	
24	0	303.8634	1	936	1551	2975	4263	541	-17.0	200	1	1	304.5922	1	
25	0	317.4783	1	437	2761	2975	4263	531	-12.0	263	0	1	325.6086	0	
26	1	332.6552	0	437	2761	2975	4263	531	-12.0	263	0	0	333.5334	1	
27	0	342.7424	1	437	2761	2975	4263	561	-12.0	200	0	1	343.4902	0	
28	1	355.7518	0	437	2761	2975	4263	561	-12.0	200	0	0	360.2387	1	
29	0	373.5437	0	437	2761	2975	4263	551	-12.0	149	0	0	375.8809	1	
30	0	386.4421	0	640	2069	2857	4205	501	-12.0	200	-1	1	387.4832	-1	
31	0	398.9785	0	437	2761	2975	4263	591	-12.0	200	0	0	400.8663	1	
32	0	410.9480	1	936	1551	2975	4263	541	-17.0	149	1	1	412.1919	1	
33	0	424.0243	1	936	1551	2975	4263	601	-17.0	263	1	1	425.1394	1	
34	0	436.2822	0	936	1551	2975	4263	511	-17.0	263	1	1	439.2643	1	
35	0	450.2830	0	437	2761	2975	4263	581	-12.0	149	0	1	451.9853	0	
36	1	466.0076	1	437	2761	2975	4263	581	-12.0	149	0	0	467.0774	1	
37	0	479.4790	0	936	1551	2975	4263	501	-17.0	200	1	1	480.8933	1	
38	0	491.3288	0	437	2761	2975	4263	561	-12.0	263	0	0	494.4149	1	
39	0	504.3161	0	437	2761	2975	4263	531	-12.0	149	0	0	506.0972	1	
40	0	515.8140	0	936	1551	2975	4263	551	-17.0	200	1	1	516.9814	1	
41	0	528.6753	0	640	2069	2857	4205	501	-12.0	200	-1	1	529.7283	-1	
42	0	540.5329	0	936	1551	2975	4263	601	-17.0	200	1	1	541.3471	1	
43	0	552.4075	0	936	1551	2975	4263	591	-17.0	149	1	1	552.9820	1	
44	0	564.6006	0	437	2761	2975	4263	501	-12.0	200	0	0	566.6594	1	
45	0	575.8774	0	437	2761	2975	4263	511	-12.0	149	0	0	577.4104	1	
46	0	586.9445	0	936	1551	2975	4263	561	-17.0	263	1	1	588.3454	1	
47	0	599.9785	0	936	1551	2975	4263	581	-17.0	149	1	1	601.0155	1	
48	0	608.8985	0	437	2761	2975	4263	571	-12.0	200	0	0	610.2900	1	
49	0	617.9634	0	936	1551	2975	4263	541	-17.0	263	1	0	619.2138	0	
50	1	623.7379	0	936	1551	2975	4263	541	-17.0	263	1	1	624.5334	1	
51	0	634.0957	1	936	1551	2975	4263	551	-17.0	263	1	1	635.8627	1	
52	0	644.5305	0	437	2761	2975	4263	551	-12.0	200	0	1	648.8667	0	
53	1	663.1971	1	437	2761	2975	4263	551	-12.0	200	0	0	666.3922	1	
54	0	676.6932	0	936	1551	2975	4263	561	-17.0	149	1	1	677.6848	1	
55	0	684.5037	0	640	2069	2857	4205	501	-12.0	200	-1	1	684.9155	-1	
56	0	693.6046	1	437	2761	2975	4263	541	-12.0	263	0	0	696.1934	1	
57	0	703.9303	0	437	2761	2975	4263	571	-12.0	149	0	1	704.8214	0	
58	1	719.5392	0	437	2761	2975	4263	571	-12.0	149	0	0	720.4929	1	
59	0	730.0062	0	437	2761	2975	4263	581	-12.0	200	0	0	731.1099	1	
60	0	740.7938	1	936	1551	2975	4263	591	-17.0	263	1	1	741.9064	1	
61	0	754.0614	0	936	1551	2975	4263	501	-17.0	149	1	1	754.7622	1	
62	0	767.4615	0	437	2761	2975	4263	601	-12.0	263	0	0	768.7519	1	
63	0	778.0195	1	640	2069	2857	4205	501	-12.0	200	-1	1	779.2596	-1	
64	0	788.8210	1	936	1551	2975	4263	571	-17.0	200	1	1	789.3476	1	
65	0	798.6513	0	936	1551	2975	4263	551	-17.0	149	1	1	799.4852	1	
66	0	809.4044	0	437	2761	2975	4263	531	-12.0	200	0	1	811.2370	0	
67	1	819.3747	1	437	2761	2975	4263	531	-12.0	200	0	0	821.2137	1	
68	0	828.9701	0	437	2761	2975	4263	521	-12.0	263	0	0	830.3741	1	
69	0	838.8267	1	936	1551	2975	4263	581	-17.0	200	1	1	839.9813	1	
70	0	852.0504	1	640	2069	2857	4205	501	-12.0	200	-1	1	857.4512	-1	
71	0	868.4939	0	437	2761	2975	4263	541	-12.0	149	0	0	870.9813	1	
72	0	877.9121	1	437	2761	2975	4263	501	-12.0	149	0	0	878.9083	1	
73	0	886.1984	1	437	2761	2975	4263	561	-12.0	263	0	0	890.6932	1	
74	0	900.7850	0	437	2761	2975	4263	511	-12.0	200	0	0	902.5167	1	
75	0	914.1303	0	936	1551	2975	4263	561	-17.0	263	1	1	914.9021	1	
76	0	924.3727	0	936	1551	2975	4263	541	-17.0	149	1	1	925.0395	1	
77	0	937.1428	0	936	1551	2975	4263	551	-17.0	200	1	1	938.6630	1	
78	0	948.7598	0	936	1551	2975	4263	571	-17.0	263	1	1	949.6334	1	
79	0	958.0245	1	437	2761	2975	4263	521	-12.0	149	0	1	959.1098	0	
80	1	972.2951	1	437	2761	2975	4263	521	-12.0	149	0	0	986.8923	1	
81	0	994.7154	1	437	2761	2975	4263	501	-12.0	200	0	0	996.0120	1	
82	0	1003.6000	0	936	1551	2975	4263	511	-17.0	263	1	1	1004.7279	1	
83	0	1015.2152	0	437	2761	2975	4263	531	-12.0	149	0	0	1017.6678	1	
84	0	1024.1928	1	437	2761	2975	4263	601	-12.0	200	0	0	1025.1506	1	
85	0	1035.4797	0	936	1551	2975	4263	591	-17.0	149	1	0	1036.5893	0	
86	1	1041.7101	0	936	1551	2975	4263	591	-17.0	149	1	1	1043.4842	1	
87	0	1053.9522	0	640	2069	2857	4205	501	-12.0	200	-1	1	1056.9885	-1	
88	0	1066.4937	1	936	1551	2975	4263	571	-17.0	263	1	1	1067.0390	1	
89	0	1074.2345	1	640	2069	2857	4205	501	-12.0	200	-1	1	1079.1023	-1	
90	0	1090.9662	0	437	2761	2975	4263	591	-12.0	149	0	0	1097.5211	1	
91	0	1106.5483	0	936	1551	2975	4263	581	-17.0	263	1	1	1107.1200	1	
92	0	1117.8512	1	437	2761	2975	4263	521	-12.0	263	0	0	1120.6880	1	
93	0	1128.0079	1	437	2761	2975	4263	551	-12.0	200	0	0	1129.2852	1	
94	0	1136.8215	0	437	2761	2975	4263	541	-12.0	149	0	1	1143.8252	0	
95	1	1148.4079	1	437	2761	2975	4263	541	-12.0	149	0	1	1149.6458	0	
96	1	1170.1809	1	437	2761	2975	4263	541	-12.0	149	0	1	1174.3808	0	
97	1	1183.2535	0	437	2761	2975	4263	541	-12.0	149	0	0	1184.3660	1	
98	0	1191.1307	1	936	1551	2975	4263	531	-17.0	200	1	1	1191.8629	1	
99	0	1201.9697	0	936	1551	2975	4263	601	-17.0	263	1	1	1203.5952	1	
100	0	1212.4165	0	936	1551	2975	4263	591	-17.0	149	1	0	1214.4085	0	
101	1	1221.4245	1	936	1551	2975	4263	591	-17.0	149	1	0	1223.3140	0	
102	1	1234.4051	1	936	1551	2975	4263	591	-17.0	149	1	1	1235.0028	1	
103	0	1245.0927	0	936	1551	2975	4263	521	-17.0	200	1	1	1246.1797	1	
104	0	1256.8250	0	936	1551	2975	4263	551	-17.0	149	1	0	1260.8554	0	
105	1	1268.9279	0	936	1551	2975	4263	551	-17.0	149	1	0	1269.8697	0	
