Trial	CorrectionTrial?	StartTime	CenterReward?	F1	F2	F3	F4	HoldTime	Atten	Pitch	Side	Response	RespTime	Correct	
1	0	4.4422	0	437	2761	2975	4263	591	-12.0	200	0	1	5.4679	0	
2	1	15.2336	0	437	2761	2975	4263	591	-12.0	200	0	0	16.7176	1	
3	0	29.2013	1	936	1551	2975	4263	561	-17.0	330	1	0	31.1161	0	
4	1	36.3360	1	936	1551	2975	4263	561	-17.0	330	1	1	38.0671	1	
5	0	44.7763	0	437	2761	2975	4263	571	-12.0	200	0	1	45.6465	0	
6	1	54.6463	0	437	2761	2975	4263	571	-12.0	200	0	0	55.4825	1	
7	0	65.9333	1	437	2761	2975	4263	601	-12.0	330	0	0	66.4513	1	
8	0	77.5934	0	936	1551	2975	4263	511	-17.0	200	1	1	78.4567	1	
9	0	87.1525	1	936	1551	2975	4263	531	-17.0	330	1	1	87.6990	1	
10	0	97.7012	0	936	1551	2975	4263	581	-17.0	330	1	1	102.3553	1	
11	0	110.2008	1	437	2761	2975	4263	521	-12.0	200	0	1	121.1554	0	
12	1	126.6522	1	437	2761	2975	4263	521	-12.0	200	0	0	127.7488	1	
13	0	135.0450	0	437	2761	2975	4263	541	-12.0	200	0	0	136.2584	1	
14	0	147.8844	0	936	1551	2975	4263	551	-17.0	330	1	1	149.0350	1	
15	0	158.8314	0	936	1551	2975	4263	581	-17.0	330	1	1	159.6388	1	
16	0	168.9467	1	437	2761	2975	4263	541	-12.0	200	0	1	181.0356	0	
17	1	200.2853	1	437	2761	2975	4263	541	-12.0	200	0	0	201.3546	1	
18	0	212.8822	0	437	2761	2975	4263	511	-12.0	330	0	1	213.7797	0	
19	1	221.9941	0	437	2761	2975	4263	511	-12.0	330	0	0	223.1116	1	
20	0	230.5834	0	437	2761	2975	4263	551	-12.0	200	0	0	231.3880	1	
21	0	245.0970	0	437	2761	2975	4263	591	-12.0	200	0	0	245.8080	1	
22	0	261.2239	0	936	1551	2975	4263	561	-17.0	330	1	1	262.2166	1	
23	0	271.0269	1	936	1551	2975	4263	501	-17.0	200	1	1	271.4674	1	
24	0	281.4758	0	437	2761	2975	4263	521	-12.0	330	0	1	282.1194	0	
25	1	287.4813	0	437	2761	2975	4263	521	-12.0	330	0	0	288.2389	1	
26	0	298.0830	1	936	1551	2975	4263	601	-17.0	200	1	1	299.4632	1	
27	0	311.0782	1	936	1551	2975	4263	531	-17.0	330	1	1	320.2837	1	
28	0	332.5799	0	936	1551	2975	4263	521	-17.0	330	1	1	333.5638	1	
29	0	345.7749	0	437	2761	2975	4263	561	-12.0	200	0	1	346.5522	0	
30	1	355.2667	1	437	2761	2975	4263	561	-12.0	200	0	0	355.9710	1	
31	0	367.5739	0	936	1551	2975	4263	531	-17.0	330	1	1	368.5676	1	
32	0	382.6979	1	936	1551	2975	4263	591	-17.0	200	1	0	383.5840	0	
33	1	387.3522	0	936	1551	2975	4263	591	-17.0	200	1	0	388.3777	0	
34	1	393.2455	0	936	1551	2975	4263	591	-17.0	200	1	1	398.8427	1	
35	0	407.3382	1	936	1551	2975	4263	511	-17.0	200	1	1	407.9259	1	
36	0	418.9933	1	936	1551	2975	4263	571	-17.0	330	1	1	419.5615	1	
37	0	429.0240	0	437	2761	2975	4263	581	-12.0	330	0	1	436.4688	0	
38	1	444.4387	1	437	2761	2975	4263	581	-12.0	330	0	0	445.0890	1	
39	0	451.9990	0	437	2761	2975	4263	501	-12.0	200	0	0	452.8045	1	
40	0	461.7581	0	437	2761	2975	4263	541	-12.0	200	0	0	463.0697	1	
41	0	471.2315	0	437	2761	2975	4263	551	-12.0	330	0	0	472.0432	1	
42	0	480.8810	1	936	1551	2975	4263	581	-17.0	330	1	1	481.7970	1	
43	0	491.7060	0	936	1551	2975	4263	541	-17.0	200	1	1	492.3051	1	
44	0	501.4365	0	936	1551	2975	4263	591	-17.0	330	1	1	502.5807	1	
45	0	511.9975	0	936	1551	2975	4263	601	-17.0	200	1	1	512.6598	1	
46	0	520.7511	1	936	1551	2975	4263	571	-17.0	200	1	1	528.8233	1	
47	0	536.6634	0	437	2761	2975	4263	531	-12.0	330	0	1	542.5466	0	
48	1	547.9591	0	437	2761	2975	4263	531	-12.0	330	0	1	548.5084	0	
49	1	556.4600	0	437	2761	2975	4263	531	-12.0	330	0	0	557.2017	1	
50	0	564.7676	1	437	2761	2975	4263	551	-12.0	330	0	0	566.0630	1	
51	0	575.2825	0	437	2761	2975	4263	501	-12.0	200	0	0	577.4130	1	
52	0	584.5445	0	437	2761	2975	4263	521	-12.0	200	0	0	586.0878	1	
53	0	595.2248	0	437	2761	2975	4263	511	-12.0	330	0	0	596.1529	1	
54	0	605.0859	0	936	1551	2975	4263	601	-17.0	330	1	1	606.2685	1	
55	0	620.2943	1	936	1551	2975	4263	551	-17.0	200	1	1	626.5915	1	
56	0	638.7700	0	437	2761	2975	4263	581	-12.0	330	0	0	640.1341	1	
57	0	648.8040	1	437	2761	2975	4263	561	-12.0	200	0	0	650.2128	1	
58	0	659.9802	1	936	1551	2975	4263	591	-17.0	330	1	1	661.3851	1	
59	0	674.3621	1	437	2761	2975	4263	541	-12.0	200	0	1	681.5915	0	
60	1	692.8987	1	437	2761	2975	4263	541	-12.0	200	0	0	694.0294	1	
61	0	700.0169	1	936	1551	2975	4263	521	-17.0	200	1	0	700.7766	0	
62	1	706.5690	0	936	1551	2975	4263	521	-17.0	200	1	1	709.6810	1	
63	0	721.2218	0	437	2761	2975	4263	571	-12.0	330	0	0	723.1604	1	
64	0	732.4298	1	936	1551	2975	4263	511	-17.0	200	1	1	733.5975	1	
65	0	746.8997	1	437	2761	2975	4263	501	-12.0	330	0	1	751.8695	0	
66	1	759.1078	0	437	2761	2975	4263	501	-12.0	330	0	0	759.7321	1	
67	0	765.7846	0	936	1551	2975	4263	531	-17.0	330	1	0	767.4040	0	
68	1	773.8384	0	936	1551	2975	4263	531	-17.0	330	1	1	774.5056	1	
69	0	785.5440	1	437	2761	2975	4263	511	-12.0	200	0	0	796.1380	1	
70	0	804.0589	0	936	1551	2975	4263	561	-17.0	330	1	1	805.1542	1	
71	0	813.6963	0	936	1551	2975	4263	581	-17.0	200	1	1	814.4740	1	
72	0	826.4616	0	936	1551	2975	4263	501	-17.0	330	1	1	827.4923	1	
73	0	837.3147	1	437	2761	2975	4263	591	-12.0	200	0	1	839.7018	0	
74	1	852.4734	0	437	2761	2975	4263	591	-12.0	200	0	0	853.2165	1	
75	0	861.3521	1	437	2761	2975	4263	551	-12.0	200	0	0	862.5375	1	
76	0	870.0207	1	936	1551	2975	4263	601	-17.0	330	1	1	877.0667	1	
77	0	889.3200	0	437	2761	2975	4263	521	-12.0	200	0	0	891.6380	1	
78	0	898.7996	0	437	2761	2975	4263	571	-12.0	330	0	0	899.9397	1	
79	0	905.5109	0	936	1551	2975	4263	501	-17.0	200	1	1	906.6571	1	
80	0	915.1957	1	936	1551	2975	4263	591	-17.0	330	1	1	915.7231	1	
81	0	924.7437	0	936	1551	2975	4263	541	-17.0	200	1	0	927.4343	0	
82	1	931.2562	0	936	1551	2975	4263	541	-17.0	200	1	0	931.9650	0	
83	1	938.5971	0	936	1551	2975	4263	541	-17.0	200	1	1	939.1143	1	
84	0	949.6883	0	936	1551	2975	4263	561	-17.0	330	1	0	950.9220	0	
85	1	956.1552	1	936	1551	2975	4263	561	-17.0	330	1	1	956.9055	1	
86	0	963.7569	0	437	2761	2975	4263	571	-12.0	330	0	0	967.6288	1	
87	0	973.2486	1	437	2761	2975	4263	581	-12.0	200	0	0	973.9434	1	
88	0	993.2798	0	437	2761	2975	4263	551	-12.0	330	0	0	996.4965	1	
89	0	1002.9284	1	437	2761	2975	4263	521	-12.0	200	0	0	1003.5270	1	
90	0	1036.1093	0	936	1551	2975	4263	531	-17.0	330	1	1	1037.7724	1	
91	0	1083.0104	0	437	2761	2975	4263	511	-12.0	200	0	1	1084.3239	0	
