Trial	CorrectionTrial?	StartTime	CenterReward?	F1	F2	F3	F4	HoldTime	Atten	Pitch	Side	Response	RespTime	Correct	
1	0	22.8100	1	936	1551	2975	4263	511	-17.0	149	1	1	28.9409	1	
2	0	43.6635	0	936	1551	2975	4263	601	-17.0	330	1	1	45.4835	1	
3	0	69.4920	0	437	2761	2975	4263	561	-12.0	263	0	0	70.4143	1	
4	0	85.9376	0	437	2761	2975	4263	571	-12.0	200	0	0	86.7550	1	
5	0	104.3788	0	936	1551	2975	4263	581	-17.0	330	1	1	106.4155	1	
6	0	119.2042	0	936	1551	2975	4263	541	-17.0	200	1	1	120.4821	1	
7	0	134.8869	0	437	2761	2975	4263	551	-12.0	149	0	1	136.0002	0	
8	1	151.9711	1	437	2761	2975	4263	551	-12.0	149	0	0	152.3864	1	
9	0	171.3252	0	936	1551	2975	4263	591	-17.0	263	1	1	172.7753	1	
10	0	186.0530	0	437	2761	2975	4263	501	-12.0	330	0	1	188.3619	0	
11	1	195.9601	1	437	2761	2975	4263	501	-12.0	330	0	0	197.2213	1	
12	0	214.8734	0	437	2761	2975	4263	521	-12.0	200	0	0	216.2226	1	
13	0	230.3936	0	936	1551	2975	4263	541	-17.0	263	1	1	232.3718	1	
14	0	245.9465	0	437	2761	2975	4263	601	-12.0	149	0	0	247.4218	1	
15	0	266.4715	0	936	1551	2975	4263	591	-17.0	149	1	0	267.8746	0	
16	1	277.4835	0	936	1551	2975	4263	591	-17.0	149	1	0	278.1530	0	
17	1	288.2442	0	936	1551	2975	4263	591	-17.0	149	1	1	288.9120	1	
18	0	302.8950	0	936	1551	2975	4263	501	-17.0	330	1	1	304.0846	1	
19	0	318.0312	0	437	2761	2975	4263	581	-12.0	200	0	1	319.1211	0	
20	1	329.0996	0	437	2761	2975	4263	581	-12.0	200	0	0	329.7717	1	
21	0	347.8326	1	437	2761	2975	4263	521	-12.0	263	0	0	349.1766	1	
22	0	373.3223	1	437	2761	2975	4263	551	-12.0	149	0	0	374.5219	1	
23	0	395.6147	0	437	2761	2975	4263	531	-12.0	330	0	1	397.8880	0	
24	1	407.1999	0	437	2761	2975	4263	531	-12.0	330	0	1	408.8097	0	
25	1	418.9096	0	437	2761	2975	4263	531	-12.0	330	0	0	419.3393	1	
26	0	441.3886	0	936	1551	2975	4263	561	-17.0	263	1	1	442.9723	1	
27	0	458.0737	0	936	1551	2975	4263	571	-17.0	200	1	1	459.0075	1	
28	0	472.0685	1	936	1551	2975	4263	521	-17.0	330	1	1	473.3925	1	
29	0	485.3616	0	437	2761	2975	4263	601	-12.0	200	0	1	487.0377	0	
30	1	496.0437	1	437	2761	2975	4263	601	-12.0	200	0	0	497.4130	1	
31	0	511.5320	0	437	2761	2975	4263	591	-12.0	263	0	1	513.7510	0	
32	1	535.5894	0	437	2761	2975	4263	591	-12.0	263	0	0	536.6398	1	
33	0	556.5148	0	437	2761	2975	4263	581	-12.0	149	0	1	558.5352	0	
34	1	566.4477	0	437	2761	2975	4263	581	-12.0	149	0	0	566.8800	1	
35	0	587.3775	1	936	1551	2975	4263	551	-17.0	200	1	1	588.9951	1	
36	0	603.2361	0	936	1551	2975	4263	501	-17.0	149	1	1	604.5705	1	
37	0	616.2265	0	936	1551	2975	4263	571	-17.0	263	1	1	617.7713	1	
38	0	631.3387	0	437	2761	2975	4263	531	-12.0	330	0	1	632.2697	0	
39	1	642.4945	0	437	2761	2975	4263	531	-12.0	330	0	0	642.9650	1	
40	0	661.4452	1	936	1551	2975	4263	561	-17.0	330	1	1	663.0282	1	
41	0	675.4055	0	437	2761	2975	4263	541	-12.0	263	0	0	677.2149	1	
42	0	699.7846	1	936	1551	2975	4263	521	-17.0	200	1	1	702.1227	1	
43	0	718.2400	0	437	2761	2975	4263	581	-12.0	149	0	0	718.6732	1	
44	0	739.5618	1	936	1551	2975	4263	531	-17.0	149	1	0	740.8016	0	
45	1	752.4308	0	936	1551	2975	4263	531	-17.0	149	1	1	753.6583	1	
46	0	772.7104	1	437	2761	2975	4263	571	-12.0	263	0	0	773.3280	1	
47	0	799.0332	1	936	1551	2975	4263	601	-17.0	330	1	1	799.8546	1	
48	0	811.9142	1	936	1551	2975	4263	561	-17.0	200	1	1	813.1985	1	
49	0	834.8787	1	437	2761	2975	4263	551	-12.0	200	0	1	835.9730	0	
50	1	847.5767	1	437	2761	2975	4263	551	-12.0	200	0	1	849.0167	0	
51	1	859.7176	0	437	2761	2975	4263	551	-12.0	200	0	0	860.0819	1	
52	0	880.1106	0	437	2761	2975	4263	541	-12.0	149	0	1	881.6324	0	
53	1	898.9992	0	437	2761	2975	4263	541	-12.0	149	0	0	899.9231	1	
54	0	917.5518	1	437	2761	2975	4263	511	-12.0	263	0	0	918.7486	1	
55	0	938.4070	1	936	1551	2975	4263	591	-17.0	330	1	1	940.4378	1	
56	0	953.2018	1	936	1551	2975	4263	581	-17.0	149	1	1	954.5198	1	
57	0	967.4020	1	437	2761	2975	4263	501	-12.0	200	0	1	971.1936	0	
58	1	984.3801	0	437	2761	2975	4263	501	-12.0	200	0	0	985.4414	1	
59	0	1006.4654	1	437	2761	2975	4263	571	-12.0	263	0	1	1008.7211	0	
60	1	1017.9849	0	437	2761	2975	4263	571	-12.0	263	0	0	1018.8452	1	
61	0	1036.8963	0	936	1551	2975	4263	531	-17.0	330	1	1	1038.6149	1	
62	0	1052.4308	0	437	2761	2975	4263	561	-12.0	330	0	0	1053.9370	1	
63	0	1075.0186	0	936	1551	2975	4263	601	-17.0	263	1	1	1076.4570	1	
64	0	1088.6564	1	936	1551	2975	4263	521	-17.0	200	1	1	1090.9313	1	
65	0	1105.2755	0	437	2761	2975	4263	511	-12.0	149	0	1	1107.7787	0	
66	1	1116.9916	0	437	2761	2975	4263	511	-12.0	149	0	0	1118.7113	1	
67	0	1134.7392	0	437	2761	2975	4263	591	-12.0	263	0	0	1136.0426	1	
68	0	1157.1760	1	936	1551	2975	4263	541	-17.0	149	1	1	1161.2032	1	
69	0	1174.7594	0	936	1551	2975	4263	551	-17.0	200	1	1	1175.8160	1	
70	0	1190.0068	0	437	2761	2975	4263	591	-12.0	330	0	1	1192.3011	0	
71	1	1204.2557	1	437	2761	2975	4263	591	-12.0	330	0	0	1209.9019	1	
72	0	1225.2201	0	437	2761	2975	4263	541	-12.0	263	0	1	1227.5751	0	
73	1	1269.0040	1	437	2761	2975	4263	541	-12.0	263	0	1	1276.9927	0	
74	1	1297.8921	0	437	2761	2975	4263	541	-12.0	263	0	0	1307.7832	1	
75	0	1322.0163	1	936	1551	2975	4263	561	-17.0	330	1	1	1328.4831	1	
76	0	1340.8173	0	437	2761	2975	4263	571	-12.0	200	0	1	1343.3074	0	
