Trial	CorrectionTrial?	StartTime	CenterReward?	F1	F2	F3	F4	HoldTime	Atten	Pitch	Side	Response	RespTime	Correct	
1	0	12.8174	0	936	1551	2975	4263	551	-17.0	149	1	1	16.9932	1	
2	0	41.7600	1	936	1551	2975	4263	501	-17.0	263	1	1	45.9004	1	
3	0	58.6431	0	936	1551	2975	4263	521	-17.0	200	1	1	59.9286	1	
4	0	83.4957	1	936	1551	2975	4263	591	-17.0	330	1	0	87.7566	0	
5	1	109.0739	0	936	1551	2975	4263	591	-17.0	330	1	1	111.0053	1	
6	0	124.0925	1	437	2761	2975	4263	511	-12.0	263	0	1	131.1351	0	
7	1	141.7474	0	437	2761	2975	4263	511	-12.0	263	0	0	142.2320	1	
8	0	162.8030	1	437	2761	2975	4263	581	-12.0	149	0	1	170.1732	0	
9	1	181.2466	0	437	2761	2975	4263	581	-12.0	149	0	0	182.9055	1	
10	0	199.1610	0	437	2761	2975	4263	561	-12.0	330	0	0	200.1949	1	
11	0	219.4632	1	437	2761	2975	4263	601	-12.0	200	0	0	220.5158	1	
12	0	238.5087	0	437	2761	2975	4263	531	-12.0	149	0	1	243.3974	0	
13	1	254.7960	0	437	2761	2975	4263	531	-12.0	149	0	0	255.4176	1	
14	0	271.4642	0	936	1551	2975	4263	571	-17.0	330	1	1	273.4598	1	
15	0	291.2809	0	437	2761	2975	4263	581	-12.0	200	0	0	295.9023	1	
16	0	314.5586	1	936	1551	2975	4263	571	-17.0	263	1	1	320.1111	1	
17	0	334.0227	1	437	2761	2975	4263	601	-12.0	149	0	1	341.3984	0	
18	1	350.5603	0	437	2761	2975	4263	601	-12.0	149	0	0	351.9308	1	
19	0	372.3740	0	437	2761	2975	4263	541	-12.0	200	0	0	373.4401	1	
20	0	390.4193	0	936	1551	2975	4263	531	-17.0	330	1	1	392.2433	1	
21	0	404.7562	1	437	2761	2975	4263	511	-12.0	263	0	1	407.0342	0	
22	1	414.9325	0	437	2761	2975	4263	511	-12.0	263	0	1	416.1926	0	
23	1	424.9615	0	437	2761	2975	4263	511	-12.0	263	0	0	426.2410	1	
24	0	443.4145	1	936	1551	2975	4263	561	-17.0	200	1	1	449.3926	1	
25	0	462.0050	0	936	1551	2975	4263	591	-17.0	149	1	1	463.5729	1	
26	0	477.7264	1	936	1551	2975	4263	551	-17.0	330	1	1	480.8022	1	
27	0	495.3398	0	437	2761	2975	4263	501	-12.0	263	0	0	499.1404	1	
28	0	522.6241	0	437	2761	2975	4263	571	-12.0	149	0	0	523.8309	1	
29	0	542.0393	0	936	1551	2975	4263	541	-17.0	200	1	1	544.0705	1	
30	0	564.3417	0	936	1551	2975	4263	581	-17.0	330	1	1	565.1777	1	
31	0	577.6182	1	437	2761	2975	4263	551	-12.0	263	0	1	580.8311	0	
32	1	591.3312	1	437	2761	2975	4263	551	-12.0	263	0	0	595.5747	1	
33	0	610.4428	0	936	1551	2975	4263	591	-17.0	263	1	1	612.3312	1	
34	0	626.7879	1	437	2761	2975	4263	561	-12.0	330	0	1	633.7246	0	
35	1	641.9090	0	437	2761	2975	4263	561	-12.0	330	0	0	643.9033	1	
36	0	665.1127	0	437	2761	2975	4263	501	-12.0	149	0	0	666.3111	1	
37	0	683.2497	0	936	1551	2975	4263	521	-17.0	200	1	1	685.2154	1	
38	0	698.9058	1	936	1551	2975	4263	601	-17.0	330	1	1	702.0428	1	
39	0	714.2399	0	437	2761	2975	4263	511	-12.0	263	0	0	717.2578	1	
40	0	737.7107	0	936	1551	2975	4263	551	-17.0	200	1	1	739.8024	1	
41	0	752.4739	0	437	2761	2975	4263	501	-12.0	149	0	0	755.0106	1	
42	0	771.9858	1	437	2761	2975	4263	531	-12.0	330	0	1	776.7740	0	
43	1	789.3013	1	437	2761	2975	4263	531	-12.0	330	0	0	792.7562	1	
44	0	814.5955	0	936	1551	2975	4263	541	-17.0	200	1	1	817.3219	1	
45	0	832.1009	0	437	2761	2975	4263	511	-12.0	149	0	1	833.3670	0	
46	1	841.8877	1	437	2761	2975	4263	511	-12.0	149	0	0	846.2958	1	
47	0	865.9877	0	437	2761	2975	4263	581	-12.0	263	0	1	869.1422	0	
48	1	877.4690	0	437	2761	2975	4263	581	-12.0	263	0	0	879.9176	1	
49	0	901.0730	0	437	2761	2975	4263	601	-12.0	330	0	0	902.0853	1	
50	0	922.9360	1	936	1551	2975	4263	521	-17.0	200	1	1	928.8810	1	
51	0	944.4592	0	936	1551	2975	4263	591	-17.0	149	1	1	945.3890	1	
52	0	960.5032	0	936	1551	2975	4263	561	-17.0	263	1	1	961.1698	1	
53	0	972.7870	1	437	2761	2975	4263	591	-12.0	330	0	1	975.9336	0	
54	1	988.4157	0	437	2761	2975	4263	591	-12.0	330	0	0	989.7841	1	
55	0	1009.1997	0	936	1551	2975	4263	561	-17.0	200	1	1	1010.9646	1	
56	0	1024.8217	0	936	1551	2975	4263	551	-17.0	149	1	1	1026.4297	1	
57	0	1039.3083	0	437	2761	2975	4263	571	-12.0	263	0	1	1041.0319	0	
58	1	1051.0069	0	437	2761	2975	4263	571	-12.0	263	0	0	1052.5824	1	
59	0	1072.5835	0	437	2761	2975	4263	501	-12.0	263	0	0	1073.5218	1	
60	0	1093.3765	0	437	2761	2975	4263	601	-12.0	149	0	0	1094.5239	1	
61	0	1115.3296	0	936	1551	2975	4263	521	-17.0	200	1	1	1117.8512	1	
62	0	1131.1974	0	936	1551	2975	4263	581	-17.0	330	1	1	1132.1450	1	
63	0	1146.7140	0	437	2761	2975	4263	531	-12.0	200	0	0	1148.8629	1	
64	0	1165.1579	0	936	1551	2975	4263	541	-17.0	149	1	1	1166.7307	1	
65	0	1178.3959	0	437	2761	2975	4263	581	-12.0	330	0	0	1180.1679	1	
66	0	1199.3787	1	437	2761	2975	4263	551	-12.0	263	0	1	1203.8954	0	
67	1	1213.5482	1	437	2761	2975	4263	551	-12.0	263	0	0	1218.2064	1	
68	0	1232.7428	0	936	1551	2975	4263	531	-17.0	200	1	1	1234.5642	1	
69	0	1247.2040	0	437	2761	2975	4263	501	-12.0	263	0	0	1249.6153	1	
70	0	1267.2792	0	437	2761	2975	4263	561	-12.0	149	0	0	1268.6515	1	
71	0	1289.6734	0	437	2761	2975	4263	541	-12.0	330	0	1	1291.8741	0	
72	1	1306.2060	1	437	2761	2975	4263	541	-12.0	330	0	0	1309.3452	1	
73	0	1325.0507	0	936	1551	2975	4263	521	-17.0	330	1	1	1327.8299	1	
74	0	1340.5994	0	936	1551	2975	4263	511	-17.0	263	1	1	1341.7559	1	
75	0	1354.2108	0	936	1551	2975	4263	591	-17.0	200	1	1	1354.9960	1	
76	0	1371.3819	0	936	1551	2975	4263	571	-17.0	149	1	1	1372.6059	1	
77	0	1388.3289	0	936	1551	2975	4263	581	-17.0	263	1	1	1389.3331	1	
78	0	1402.6775	0	936	1551	2975	4263	501	-17.0	330	1	1	1403.6902	1	
79	0	1416.0871	0	936	1551	2975	4263	601	-17.0	200	1	1	1416.8983	1	
80	0	1429.0026	0	437	2761	2975	4263	571	-12.0	149	0	1	1429.8461	0	
81	1	1440.0794	0	437	2761	2975	4263	571	-12.0	149	0	0	1441.7410	1	
82	0	1453.7490	0	437	2761	2975	4263	531	-12.0	149	0	0	1455.2469	1	
83	0	1470.8294	0	437	2761	2975	4263	591	-12.0	330	0	0	1471.9739	1	
84	0	1488.4595	0	936	1551	2975	4263	561	-17.0	263	1	1	1490.6008	1	
85	0	1502.4071	1	437	2761	2975	4263	521	-12.0	200	0	1	1505.9224	0	
86	1	1525.9342	1	437	2761	2975	4263	521	-12.0	200	0	0	1526.6246	1	
87	0	1541.8073	1	437	2761	2975	4263	551	-12.0	200	0	0	1548.3470	1	
88	0	1560.6728	1	936	1551	2975	4263	511	-17.0	263	1	1	1567.1096	1	
89	0	1578.1767	1	437	2761	2975	4263	581	-12.0	149	0	1	1581.4553	0	
90	1	1610.8911	0	437	2761	2975	4263	581	-12.0	149	0	0	1614.2790	1	
91	0	1623.9606	1	437	2761	2975	4263	591	-12.0	330	0	1	1629.0424	0	
92	1	1656.3012	1	437	2761	2975	4263	591	-12.0	330	0	0	1660.7121	1	
93	0	1675.2896	0	437	2761	2975	4263	521	-12.0	330	0	0	1677.1021	1	
94	0	1689.3646	0	936	1551	2975	4263	541	-17.0	149	1	1	1693.6131	1	
95	0	1702.0907	1	437	2761	2975	4263	531	-12.0	200	0	1	1704.6349	0	
96	1	1741.9033	0	437	2761	2975	4263	531	-12.0	200	0	0	1742.6455	1	
97	0	1750.4395	0	936	1551	2975	4263	601	-17.0	263	1	0	1751.2949	0	
98	1	1926.7261	1	936	1551	2975	4263	601	-17.0	263	1	0	1934.4492	0	
99	1	1944.9591	1	936	1551	2975	4263	601	-17.0	263	1	1	1949.0985	1	
