Trial	CorrectionTrial?	StartTime	CenterReward?	F1	F2	F3	F4	HoldTime	Atten	Pitch	Side	Response	RespTime	Correct	
1	0	13.8923	0	730	2058	2857	4205	701	-11.0	200	1	1	15.3394	1	
2	0	20.6723	0	730	2058	2857	4205	551	-15.5	200	1	1	21.8300	1	
3	0	27.7315	0	730	2058	2857	4205	951	-20.0	200	1	1	28.3970	1	
4	0	34.9073	0	460	1105	2857	4205	901	0.0	200	0	0	36.1002	1	
5	0	40.7471	0	730	2058	2857	4205	751	-15.5	200	1	1	41.3700	1	
6	0	46.4967	0	730	2058	2857	4205	501	-6.5	200	1	1	47.6302	1	
7	0	53.0230	0	460	1105	2857	4205	801	-18.0	200	0	0	53.9724	1	
8	0	63.0834	1	460	1105	2857	4205	601	0.0	200	0	0	65.2303	1	
9	0	70.1593	0	460	1105	2857	4205	851	-4.5	200	0	0	71.0260	1	
10	0	76.5302	0	460	1105	2857	4205	651	0.0	200	0	0	77.9649	1	
11	0	83.2026	0	730	2058	2857	4205	901	-11.0	200	1	1	83.9032	1	
12	0	87.7707	0	460	1105	2857	4205	1001	-13.5	200	0	0	88.8222	1	
13	0	94.6531	0	730	2058	2857	4205	951	-6.5	200	1	1	95.3946	1	
14	0	100.0857	0	460	1105	2857	4205	651	-18.0	200	0	0	101.2311	1	
15	0	107.2922	0	730	2058	2857	4205	501	-2.0	200	1	1	108.5867	1	
16	0	112.7018	0	730	2058	2857	4205	851	-11.0	200	1	1	113.5989	1	
17	0	119.1847	0	460	1105	2857	4205	801	-9.0	200	0	0	120.3997	1	
18	0	127.1036	0	730	2058	2857	4205	751	-6.5	200	1	1	128.1404	1	
19	0	131.2760	0	460	1105	2857	4205	601	-13.5	200	0	0	132.4928	1	
20	0	137.9310	0	460	1105	2857	4205	701	0.0	200	0	0	139.5949	1	
21	0	145.6596	0	730	2058	2857	4205	901	-15.5	200	1	1	146.5388	1	
22	0	150.5864	0	730	2058	2857	4205	551	-2.0	200	1	1	151.5032	1	
23	0	155.8787	0	460	1105	2857	4205	701	-4.5	200	0	0	157.0739	1	
24	0	164.7510	0	730	2058	2857	4205	801	-20.0	200	1	1	165.4918	1	
25	0	169.6564	0	730	2058	2857	4205	1001	-2.0	200	1	1	170.5623	1	
26	0	176.7285	0	460	1105	2857	4205	751	-4.5	200	0	0	177.7346	1	
27	0	183.3730	1	460	1105	2857	4205	501	-18.0	200	0	0	185.5697	1	
28	0	192.0650	0	460	1105	2857	4205	601	-9.0	200	0	0	193.7856	1	
29	0	199.5165	0	460	1105	2857	4205	951	-9.0	200	0	0	200.7469	1	
30	0	206.9116	0	730	2058	2857	4205	851	-2.0	200	1	1	207.7349	1	
31	0	211.8816	0	730	2058	2857	4205	601	-6.5	200	1	1	212.8474	1	
32	0	218.1406	0	460	1105	2857	4205	501	-13.5	200	0	0	219.5229	1	
33	0	226.6089	0	460	1105	2857	4205	901	-13.5	200	0	0	227.9426	1	
34	0	234.3412	0	460	1105	2857	4205	701	0.0	200	0	0	236.1481	1	
35	0	243.2590	0	730	2058	2857	4205	651	-6.5	200	1	1	244.0892	1	
36	0	248.6591	0	460	1105	2857	4205	851	-18.0	200	0	0	249.8298	1	
37	0	254.8137	0	730	2058	2857	4205	551	-15.5	200	1	1	255.7268	1	
38	0	260.6520	1	730	2058	2857	4205	801	-6.5	200	1	1	261.3378	1	
39	0	267.7032	0	730	2058	2857	4205	951	-11.0	200	1	1	268.6931	1	
40	0	274.2631	0	460	1105	2857	4205	751	-18.0	200	0	0	275.7980	1	
41	0	281.4435	0	730	2058	2857	4205	1001	-11.0	200	1	1	282.3700	1	
42	0	285.7100	0	730	2058	2857	4205	551	-2.0	200	1	1	286.9311	1	
43	0	291.5501	0	460	1105	2857	4205	501	-18.0	200	0	1	293.2074	0	
44	1	304.0213	0	460	1105	2857	4205	501	-18.0	200	0	0	305.7350	1	
45	0	311.9415	1	460	1105	2857	4205	901	-4.5	200	0	0	314.6754	1	
46	0	320.8658	0	460	1105	2857	4205	601	-9.0	200	0	0	323.0649	1	
47	0	328.5149	1	460	1105	2857	4205	951	-18.0	200	0	0	331.3697	1	
48	0	337.1308	0	730	2058	2857	4205	751	-15.5	200	1	1	338.2595	1	
49	0	341.2409	0	730	2058	2857	4205	851	-6.5	200	1	1	342.4645	1	
50	0	346.8997	0	730	2058	2857	4205	651	-11.0	200	1	1	347.9325	1	
51	0	353.8019	0	460	1105	2857	4205	701	0.0	200	0	0	354.8837	1	
52	0	360.2917	0	730	2058	2857	4205	1001	-15.5	200	1	1	361.4932	1	
53	0	365.4464	0	460	1105	2857	4205	901	-18.0	200	0	0	366.8283	1	
54	0	372.8720	0	730	2058	2857	4205	751	-15.5	200	1	1	373.8172	1	
55	0	377.3731	0	460	1105	2857	4205	851	-18.0	200	0	0	378.7270	1	
56	0	384.3765	0	460	1105	2857	4205	601	-9.0	200	0	0	386.3831	1	
57	0	391.7876	0	730	2058	2857	4205	501	-2.0	200	1	1	392.7670	1	
58	0	398.1615	0	730	2058	2857	4205	551	-11.0	200	1	1	399.2235	1	
59	0	404.9267	1	460	1105	2857	4205	701	-18.0	200	0	0	406.8442	1	
60	0	411.7424	0	730	2058	2857	4205	651	-6.5	200	1	1	412.9003	1	
61	0	416.5529	1	460	1105	2857	4205	951	-13.5	200	0	0	418.3537	1	
62	0	423.6960	0	460	1105	2857	4205	751	-13.5	200	0	0	425.2398	1	
63	0	431.0798	0	460	1105	2857	4205	551	-4.5	200	0	0	433.0217	1	
64	0	438.0504	0	730	2058	2857	4205	651	-20.0	200	1	1	439.4449	1	
65	0	444.7011	0	730	2058	2857	4205	501	-2.0	200	1	1	445.9366	1	
66	0	450.5704	0	460	1105	2857	4205	851	0.0	200	0	0	451.9383	1	
67	0	456.4267	1	730	2058	2857	4205	1001	-11.0	200	1	1	457.4686	1	
68	0	462.2062	0	730	2058	2857	4205	601	-6.5	200	1	1	463.9844	1	
69	0	469.4469	0	460	1105	2857	4205	701	-13.5	200	0	0	472.8707	1	
70	0	478.6369	0	460	1105	2857	4205	801	-18.0	200	0	0	480.2463	1	
71	0	487.7942	0	730	2058	2857	4205	901	-15.5	200	1	1	488.7078	1	
72	0	492.3427	0	460	1105	2857	4205	551	-9.0	200	0	0	494.3223	1	
73	0	501.0893	1	730	2058	2857	4205	801	-6.5	200	1	1	502.0432	1	
74	0	510.6403	0	460	1105	2857	4205	701	0.0	200	0	0	513.3746	1	
75	0	518.4189	0	460	1105	2857	4205	901	-4.5	200	0	0	520.4425	1	
76	0	525.3989	0	460	1105	2857	4205	1001	-18.0	200	0	0	527.0740	1	
77	0	532.1778	0	730	2058	2857	4205	951	-11.0	200	1	1	532.9946	1	
78	0	537.1672	0	460	1105	2857	4205	601	-13.5	200	0	0	538.9090	1	
79	0	545.4777	0	730	2058	2857	4205	501	-20.0	200	1	1	546.3866	1	
80	0	549.7494	0	730	2058	2857	4205	651	-11.0	200	1	1	550.5390	1	
81	0	557.1800	0	730	2058	2857	4205	751	-6.5	200	1	1	557.9921	1	
82	0	565.3062	0	460	1105	2857	4205	951	0.0	200	0	0	566.4072	1	
83	0	571.9158	0	460	1105	2857	4205	501	-9.0	200	0	0	573.7979	1	
84	0	579.6141	0	460	1105	2857	4205	851	-13.5	200	0	0	581.1544	1	
85	0	586.3490	1	730	2058	2857	4205	551	-6.5	200	1	1	587.4140	1	
86	0	591.4564	0	730	2058	2857	4205	1001	-6.5	200	1	1	592.0681	1	
87	0	600.1594	0	730	2058	2857	4205	801	-11.0	200	1	1	601.8102	1	
88	0	604.9376	0	730	2058	2857	4205	651	-15.5	200	1	1	605.9120	1	
89	0	609.7870	0	460	1105	2857	4205	601	-18.0	200	0	0	611.8479	1	
90	0	616.5912	0	730	2058	2857	4205	901	-6.5	200	1	1	617.5993	1	
91	0	622.0605	0	460	1105	2857	4205	751	-9.0	200	0	0	624.1526	1	
92	0	629.2981	0	730	2058	2857	4205	951	-20.0	200	1	1	630.3982	1	
93	0	634.9712	0	730	2058	2857	4205	901	-15.5	200	1	1	636.0378	1	
94	0	640.6189	0	460	1105	2857	4205	601	0.0	200	0	0	642.4923	1	
95	0	647.1773	0	460	1105	2857	4205	651	-13.5	200	0	0	648.8982	1	
96	0	653.5533	0	460	1105	2857	4205	501	-18.0	200	0	0	655.8071	1	
97	0	691.5058	0	460	1105	2857	4205	1001	-4.5	200	0	1	692.5704	0	
