Trial	CorrectionTrial?	StartTime	CenterReward?	F1	F2	F3	F4	HoldTime	Atten	Pitch	Side	Response	RespTime	Correct	
1	0	4.2605	0	460	1105	2857	4205	501	-13.5	200	0	1	9.8310	0	
2	1	19.1279	0	460	1105	2857	4205	501	-13.5	200	0	1	31.5353	0	
3	1	42.8468	0	460	1105	2857	4205	501	-13.5	200	0	1	44.3827	0	
4	1	64.3456	0	460	1105	2857	4205	501	-13.5	200	0	0	69.8197	1	
5	0	74.3382	0	730	2058	2857	4205	651	-6.5	200	1	1	75.3473	1	
6	0	80.3832	0	460	1105	2857	4205	701	0.0	200	0	1	83.8977	0	
7	1	92.6400	0	460	1105	2857	4205	701	0.0	200	0	0	94.0347	1	
8	0	100.7027	0	730	2058	2857	4205	801	-11.0	200	1	1	101.3416	1	
9	0	105.6026	0	730	2058	2857	4205	751	-6.5	200	1	1	106.1436	1	
10	0	110.9679	0	460	1105	2857	4205	601	-13.5	200	0	0	112.0223	1	
11	0	117.6396	0	730	2058	2857	4205	1001	-20.0	200	1	1	118.0918	1	
12	0	122.9647	0	460	1105	2857	4205	901	-9.0	200	0	1	123.7984	0	
13	1	139.7607	0	460	1105	2857	4205	901	-9.0	200	0	1	140.4781	0	
14	1	151.4968	0	460	1105	2857	4205	901	-9.0	200	0	0	154.9518	1	
15	0	159.8212	0	730	2058	2857	4205	551	-2.0	200	1	1	160.6753	1	
16	0	165.3866	0	460	1105	2857	4205	851	-18.0	200	0	0	166.3024	1	
17	0	171.8621	1	730	2058	2857	4205	601	-11.0	200	1	1	172.7678	1	
18	0	177.1160	0	460	1105	2857	4205	751	-4.5	200	0	0	177.9853	1	
19	0	183.9064	0	730	2058	2857	4205	851	-6.5	200	1	1	184.7613	1	
20	0	189.5669	0	460	1105	2857	4205	801	-13.5	200	0	0	190.7643	1	
21	0	196.3848	0	460	1105	2857	4205	551	0.0	200	0	0	197.9365	1	
22	0	204.3948	1	730	2058	2857	4205	501	-11.0	200	1	1	205.7392	1	
23	0	210.9320	0	730	2058	2857	4205	651	-20.0	200	1	1	211.9876	1	
24	0	215.9642	0	460	1105	2857	4205	701	0.0	200	0	0	217.4607	1	
25	0	223.6187	0	730	2058	2857	4205	901	-11.0	200	1	1	224.7248	1	
26	0	228.7616	0	460	1105	2857	4205	951	-4.5	200	0	0	230.1022	1	
27	0	238.5501	1	460	1105	2857	4205	801	0.0	200	0	0	239.8721	1	
28	0	245.8826	0	730	2058	2857	4205	701	-15.5	200	1	1	248.5823	1	
29	0	253.3444	0	460	1105	2857	4205	901	-9.0	200	0	0	255.3213	1	
30	0	260.7178	1	730	2058	2857	4205	501	-6.5	200	1	1	261.9106	1	
31	0	266.8251	1	730	2058	2857	4205	551	-15.5	200	1	1	267.7819	1	
32	0	272.2612	0	730	2058	2857	4205	851	-20.0	200	1	1	278.8544	1	
33	0	282.9431	0	460	1105	2857	4205	751	-4.5	200	0	0	285.4015	1	
34	0	290.2539	1	460	1105	2857	4205	651	0.0	200	0	0	291.8223	1	
35	0	296.8543	0	730	2058	2857	4205	1001	-20.0	200	1	1	298.8656	1	
36	0	302.7394	1	460	1105	2857	4205	601	0.0	200	0	0	304.5747	1	
37	0	312.6286	0	460	1105	2857	4205	851	-13.5	200	0	1	317.9529	0	
38	1	337.6123	0	460	1105	2857	4205	851	-13.5	200	0	0	338.8522	1	
39	0	344.6885	0	730	2058	2857	4205	901	-6.5	200	1	1	345.5462	1	
40	0	348.4425	0	460	1105	2857	4205	501	-18.0	200	0	0	350.6307	1	
41	0	355.8984	1	460	1105	2857	4205	701	0.0	200	0	0	357.7031	1	
42	0	363.8289	0	460	1105	2857	4205	651	-4.5	200	0	0	365.9164	1	
43	0	371.9436	0	730	2058	2857	4205	601	-11.0	200	1	1	373.0834	1	
44	0	377.4864	0	730	2058	2857	4205	551	-11.0	200	1	1	378.6963	1	
45	0	383.7710	0	730	2058	2857	4205	951	-20.0	200	1	1	384.6021	1	
46	0	389.3783	0	730	2058	2857	4205	751	-2.0	200	1	0	391.0117	0	
47	1	401.7801	0	730	2058	2857	4205	751	-2.0	200	1	1	402.8390	1	
48	0	406.5740	1	460	1105	2857	4205	801	-4.5	200	0	0	407.7995	1	
49	0	412.7201	0	730	2058	2857	4205	501	-6.5	200	1	1	414.2979	1	
50	0	419.1092	0	730	2058	2857	4205	701	-2.0	200	1	0	420.5610	0	
51	1	431.4881	0	730	2058	2857	4205	701	-2.0	200	1	1	433.0342	1	
52	0	436.5583	0	460	1105	2857	4205	651	-13.5	200	0	0	438.1025	1	
53	0	442.9837	0	730	2058	2857	4205	951	-11.0	200	1	1	444.1179	1	
54	0	448.7945	0	730	2058	2857	4205	901	-11.0	200	1	1	449.4363	1	
55	0	455.2622	0	460	1105	2857	4205	601	-4.5	200	0	0	456.5244	1	
56	0	461.7526	1	460	1105	2857	4205	551	0.0	200	0	0	465.8205	1	
57	0	471.2481	0	730	2058	2857	4205	751	-15.5	200	1	1	472.6420	1	
58	0	476.7528	0	460	1105	2857	4205	1001	-9.0	200	0	0	478.2902	1	
59	0	483.7369	0	460	1105	2857	4205	801	0.0	200	0	0	486.4101	1	
60	0	491.8314	0	730	2058	2857	4205	601	-20.0	200	1	1	493.1237	1	
61	0	498.1831	0	730	2058	2857	4205	851	-15.5	200	1	1	498.9437	1	
62	0	504.2510	0	730	2058	2857	4205	801	-15.5	200	1	1	505.0606	1	
63	0	510.0035	0	460	1105	2857	4205	951	-4.5	200	0	0	511.0576	1	
64	0	515.7906	0	460	1105	2857	4205	701	-18.0	200	0	0	517.9631	1	
65	0	524.2246	1	460	1105	2857	4205	901	-9.0	200	0	0	527.2738	1	
66	0	532.2006	0	460	1105	2857	4205	1001	-18.0	200	0	0	533.6255	1	
67	0	539.6202	0	460	1105	2857	4205	501	-4.5	200	0	0	542.5153	1	
68	0	549.1665	0	730	2058	2857	4205	551	-11.0	200	1	1	550.4049	1	
69	0	555.2500	0	730	2058	2857	4205	651	-15.5	200	1	1	556.1494	1	
70	0	564.2640	0	460	1105	2857	4205	751	-9.0	200	0	0	565.9746	1	
71	0	570.9875	0	730	2058	2857	4205	801	-6.5	200	1	1	572.3011	1	
72	0	577.6007	0	460	1105	2857	4205	551	-13.5	200	0	0	579.1324	1	
73	0	585.1362	0	460	1105	2857	4205	601	0.0	200	0	1	586.8975	0	
74	1	599.0240	0	460	1105	2857	4205	601	0.0	200	0	0	600.4979	1	
75	0	605.4415	0	730	2058	2857	4205	901	-20.0	200	1	1	606.5451	1	
76	0	614.9475	0	460	1105	2857	4205	951	-9.0	200	0	0	615.7297	1	
77	0	620.9324	0	460	1105	2857	4205	651	-4.5	200	0	0	623.4763	1	
78	0	630.7891	0	730	2058	2857	4205	501	-15.5	200	1	1	632.8120	1	
79	0	638.0177	0	730	2058	2857	4205	1001	-6.5	200	1	1	638.6610	1	
80	0	645.7710	0	730	2058	2857	4205	701	-11.0	200	1	1	646.5339	1	
81	0	653.0765	0	460	1105	2857	4205	751	-13.5	200	0	0	654.0398	1	
82	0	660.8881	0	730	2058	2857	4205	801	-2.0	200	1	1	662.2295	1	
83	0	666.7967	0	460	1105	2857	4205	601	0.0	200	0	0	668.2320	1	
84	0	673.3962	0	460	1105	2857	4205	1001	-13.5	200	0	0	674.8020	1	
85	0	680.1635	0	460	1105	2857	4205	901	-9.0	200	0	0	681.5427	1	
86	0	689.3097	0	730	2058	2857	4205	951	-20.0	200	1	1	689.8795	1	
