Trial	CorrectionTrial?	StartTime	CenterReward?	F1	F2	F3	F4	HoldTime	Atten	Pitch	Side	Response	RespTime	Correct	
1	0	7.5018	0	936	1551	2975	4263	521	-9.5	200	1	1	8.6680	1	
2	0	14.9668	0	437	2761	2975	4263	601	-6.0	200	0	1	32.6527	0	
3	1	43.6462	0	437	2761	2975	4263	601	-6.0	200	0	1	44.2607	0	
4	1	50.3730	0	437	2761	2975	4263	601	-6.0	200	0	0	51.5000	1	
5	0	65.0789	1	936	1551	2975	4263	561	-12.5	200	1	0	66.7480	0	
6	1	89.7184	1	936	1551	2975	4263	561	-12.5	200	1	0	95.7010	0	
7	1	105.5408	0	936	1551	2975	4263	561	-12.5	200	1	1	106.0707	1	
8	0	116.2750	1	936	1551	2975	4263	531	-9.5	200	1	0	121.2487	0	
9	1	131.9515	0	936	1551	2975	4263	531	-9.5	200	1	1	132.7734	1	
10	0	143.0207	0	936	1551	2975	4263	501	-10.5	200	-1	0	147.7518	-1	
11	0	157.1809	0	437	2761	2975	4263	511	-7.5	200	0	1	158.2329	0	
12	1	164.6167	0	437	2761	2975	4263	511	-7.5	200	0	0	166.2734	1	
13	0	175.7996	0	437	2761	2975	4263	501	-10.5	200	0	0	177.5556	1	
14	0	186.5177	0	437	2761	2975	4263	501	-10.5	200	-1	0	190.8571	-1	
15	0	203.5661	0	936	1551	2975	4263	571	-9.5	200	1	1	204.6994	1	
16	0	212.6026	1	936	1551	2975	4263	541	-11.0	200	1	1	214.1106	1	
17	0	221.6181	0	936	1551	2975	4263	571	-12.5	200	1	0	222.7930	0	
18	1	229.2790	0	936	1551	2975	4263	571	-12.5	200	1	0	229.7780	0	
19	1	239.5398	0	936	1551	2975	4263	571	-12.5	200	1	1	240.2360	1	
20	0	248.1887	1	437	2761	2975	4263	501	-6.0	200	0	1	249.1595	0	
21	1	266.3213	1	437	2761	2975	4263	501	-6.0	200	0	0	268.2296	1	
22	0	277.2805	1	437	2761	2975	4263	601	-10.5	200	0	1	278.5255	0	
23	1	290.2764	0	437	2761	2975	4263	601	-10.5	200	0	0	291.2474	1	
24	0	300.0306	0	437	2761	2975	4263	591	-9.0	200	0	0	300.9431	1	
25	0	309.9089	0	936	1551	2975	4263	501	-10.5	200	-1	0	310.4200	-1	
26	0	321.4558	0	437	2761	2975	4263	501	-10.5	200	-1	1	323.5031	-1	
27	0	331.5427	0	437	2761	2975	4263	521	-9.0	200	0	1	332.5314	0	
28	1	342.5442	0	437	2761	2975	4263	521	-9.0	200	0	0	343.1284	1	
29	0	353.3318	1	936	1551	2975	4263	531	-12.5	200	1	0	354.3562	0	
30	1	365.2306	0	936	1551	2975	4263	531	-12.5	200	1	1	365.9384	1	
31	0	374.1380	0	936	1551	2975	4263	501	-10.5	200	-1	1	375.3302	-1	
32	0	383.0541	0	936	1551	2975	4263	601	-15.5	200	1	1	384.0183	1	
33	0	392.1652	1	437	2761	2975	4263	511	-6.0	200	0	0	396.5422	1	
34	0	404.8037	1	936	1551	2975	4263	591	-12.5	200	1	1	405.7771	1	
35	0	410.7467	1	437	2761	2975	4263	501	-9.0	200	0	1	415.6351	0	
36	1	423.5675	0	437	2761	2975	4263	501	-9.0	200	0	0	424.2507	1	
37	0	433.0837	0	437	2761	2975	4263	501	-10.5	200	-1	1	435.4279	-1	
38	0	443.3111	1	936	1551	2975	4263	571	-14.0	200	1	1	443.8560	1	
39	0	451.0920	0	437	2761	2975	4263	521	-6.0	200	0	1	454.6966	0	
40	1	471.4127	1	437	2761	2975	4263	521	-6.0	200	0	0	472.0182	1	
41	0	479.9987	0	936	1551	2975	4263	551	-9.5	200	1	0	482.0942	0	
42	1	489.6347	0	936	1551	2975	4263	551	-9.5	200	1	1	490.7953	1	
43	0	498.4959	0	437	2761	2975	4263	581	-6.0	200	0	0	499.6039	1	
44	0	510.3283	0	936	1551	2975	4263	501	-10.5	200	-1	0	511.2329	-1	
45	0	519.9610	1	437	2761	2975	4263	581	-9.0	200	0	0	525.9073	1	
46	0	536.4688	0	936	1551	2975	4263	511	-9.5	200	1	1	537.4515	1	
47	0	548.0600	1	437	2761	2975	4263	601	-9.0	200	0	0	549.7771	1	
48	0	558.7628	0	936	1551	2975	4263	501	-9.5	200	1	1	566.3659	1	
49	0	575.2603	0	936	1551	2975	4263	501	-10.5	200	-1	0	576.4440	-1	
50	0	585.9903	0	936	1551	2975	4263	561	-15.5	200	1	1	587.2529	1	
51	0	591.6190	0	936	1551	2975	4263	521	-15.5	200	1	1	592.6121	1	
52	0	601.8499	0	437	2761	2975	4263	571	-6.0	200	0	0	602.8141	1	
53	0	610.5138	0	437	2761	2975	4263	501	-10.5	200	-1	1	612.2628	-1	
54	0	621.1173	1	437	2761	2975	4263	541	-9.0	200	0	0	627.1575	1	
55	0	634.8134	1	936	1551	2975	4263	551	-14.0	200	1	0	635.5947	0	
56	1	641.2907	1	936	1551	2975	4263	551	-14.0	200	1	1	648.1057	1	
57	0	652.2643	0	437	2761	2975	4263	581	-7.5	200	0	0	653.1469	1	
58	0	660.9825	0	936	1551	2975	4263	501	-10.5	200	-1	0	662.0209	-1	
59	0	687.8502	1	437	2761	2975	4263	501	-10.5	200	0	1	689.4008	0	
60	1	700.1828	0	437	2761	2975	4263	501	-10.5	200	0	0	701.1765	1	
61	0	708.7706	0	936	1551	2975	4263	591	-12.5	200	1	1	709.5679	1	
62	0	717.9113	0	437	2761	2975	4263	541	-10.5	200	0	1	718.5743	0	
63	1	735.0802	0	437	2761	2975	4263	541	-10.5	200	0	0	735.7517	1	
64	0	757.6003	0	936	1551	2975	4263	561	-9.5	200	1	1	758.2675	1	
65	0	762.2713	0	437	2761	2975	4263	501	-10.5	200	-1	0	763.7689	-1	
66	0	856.1518	0	936	1551	2975	4263	501	-10.5	200	-1	0	871.2191	-1	
67	0	880.6529	0	936	1551	2975	4263	531	-11.0	200	1	1	881.6994	1	
68	0	885.7192	1	437	2761	2975	4263	551	-4.5	200	0	0	891.1090	1	
69	0	898.3305	1	936	1551	2975	4263	561	-14.0	200	1	0	899.4116	0	
70	1	905.8017	0	936	1551	2975	4263	561	-14.0	200	1	1	908.5465	1	
71	0	911.9262	0	437	2761	2975	4263	501	-10.5	200	-1	1	912.5784	-1	
72	0	916.4186	1	437	2761	2975	4263	501	-10.5	200	0	0	917.2911	1	
73	0	939.0213	0	936	1551	2975	4263	521	-11.0	200	1	1	939.6354	1	
74	0	943.1828	1	437	2761	2975	4263	581	-9.0	200	0	0	950.0450	1	
