Trial	CorrectionTrial?	StartTime	CenterReward?	F1	F2	F3	F4	HoldTime	Atten	Pitch	Side	Response	RespTime	Correct	
1	0	18.1626	0	936	1551	2975	4263	531	-12.5	200	1	0	21.0479	0	
2	1	27.3551	0	936	1551	2975	4263	531	-12.5	200	1	1	28.9407	1	
3	0	40.7594	0	437	2761	2975	4263	541	-4.5	200	0	1	41.7843	0	
4	1	48.2824	1	437	2761	2975	4263	541	-4.5	200	0	1	49.9209	0	
5	1	64.6374	1	437	2761	2975	4263	541	-4.5	200	0	0	66.7361	1	
6	0	86.3826	0	936	1551	2975	4263	501	-10.5	200	-1	1	87.7362	-1	
7	0	94.4106	0	936	1551	2975	4263	571	-14.0	200	1	1	95.3020	1	
8	0	101.5886	0	437	2761	2975	4263	501	-7.5	200	0	1	104.3802	0	
9	1	110.2532	1	437	2761	2975	4263	501	-7.5	200	0	0	111.5007	1	
10	0	135.0236	0	437	2761	2975	4263	511	-9.0	200	0	1	135.8952	0	
11	1	142.1139	0	437	2761	2975	4263	511	-9.0	200	0	0	150.0239	1	
12	0	164.4693	0	437	2761	2975	4263	501	-10.5	200	-1	0	165.6492	-1	
13	0	175.2897	0	936	1551	2975	4263	591	-15.5	200	1	1	176.2369	1	
14	0	181.9127	1	437	2761	2975	4263	581	-10.5	200	0	0	184.2313	1	
15	0	195.3557	0	936	1551	2975	4263	551	-12.5	200	1	0	196.5061	0	
16	1	230.6638	0	936	1551	2975	4263	551	-12.5	200	1	1	231.9505	1	
17	0	243.9792	0	437	2761	2975	4263	571	-4.5	200	0	0	244.5793	1	
18	0	258.5528	1	936	1551	2975	4263	601	-11.0	200	1	1	260.5571	1	
19	0	266.2415	0	936	1551	2975	4263	501	-14.0	200	1	0	272.1924	0	
20	1	292.5329	0	936	1551	2975	4263	501	-14.0	200	1	1	293.4288	1	
21	0	302.3873	0	437	2761	2975	4263	501	-10.5	200	-1	1	303.7551	-1	
22	0	314.2744	0	936	1551	2975	4263	501	-10.5	200	-1	0	318.9968	-1	
23	0	333.1224	1	437	2761	2975	4263	541	-4.5	200	0	0	336.6260	1	
24	0	349.7600	0	437	2761	2975	4263	521	-10.5	200	0	0	351.3380	1	
25	0	363.8141	0	437	2761	2975	4263	551	-4.5	200	0	0	365.0518	1	
26	0	375.1019	1	936	1551	2975	4263	591	-14.0	200	1	1	376.9507	1	
27	0	383.5696	1	437	2761	2975	4263	531	-7.5	200	0	0	391.1934	1	
28	0	402.0885	0	936	1551	2975	4263	531	-14.0	200	1	1	403.4040	1	
29	0	410.2865	0	936	1551	2975	4263	501	-10.5	200	-1	1	411.4629	-1	
30	0	418.2233	0	437	2761	2975	4263	501	-10.5	200	-1	0	420.1932	-1	
31	0	430.7956	0	936	1551	2975	4263	541	-12.5	200	1	1	431.9810	1	
32	0	437.8038	0	936	1551	2975	4263	501	-10.5	200	-1	1	438.4914	-1	
33	0	444.4865	0	437	2761	2975	4263	501	-10.5	200	-1	1	446.5527	-1	
34	0	462.2903	0	936	1551	2975	4263	581	-9.5	200	1	1	463.4476	1	
35	0	468.9618	1	437	2761	2975	4263	591	-10.5	200	0	0	472.8712	1	
36	0	484.4136	0	936	1551	2975	4263	501	-15.5	200	1	1	485.7983	1	
37	0	491.2012	1	437	2761	2975	4263	511	-4.5	200	0	0	498.3475	1	
38	0	509.7194	1	936	1551	2975	4263	521	-12.5	200	1	0	513.5824	0	
39	1	519.4780	1	936	1551	2975	4263	521	-12.5	200	1	1	526.5571	1	
40	0	532.0928	0	437	2761	2975	4263	561	-6.0	200	0	1	532.2410	0	
41	1	543.2010	0	437	2761	2975	4263	561	-6.0	200	0	0	544.8346	1	
42	0	555.1934	0	936	1551	2975	4263	591	-12.5	200	1	1	556.6503	1	
43	0	561.6679	0	936	1551	2975	4263	501	-10.5	200	-1	1	562.7981	-1	
44	0	568.3637	0	936	1551	2975	4263	581	-9.5	200	1	1	569.6244	1	
45	0	576.3116	0	437	2761	2975	4263	501	-10.5	200	-1	0	577.7222	-1	
46	0	585.2867	1	437	2761	2975	4263	531	-6.0	200	0	0	587.7356	1	
47	0	600.9490	1	936	1551	2975	4263	601	-9.5	200	1	0	605.9783	0	
48	1	612.6637	0	936	1551	2975	4263	601	-9.5	200	1	1	614.2616	1	
49	0	619.8519	0	437	2761	2975	4263	511	-7.5	200	0	0	621.5753	1	
50	0	629.7219	1	437	2761	2975	4263	541	-9.0	200	0	0	634.6132	1	
51	0	643.7480	0	437	2761	2975	4263	501	-10.5	200	-1	0	645.2351	-1	
52	0	653.7364	0	936	1551	2975	4263	501	-10.5	200	-1	0	655.2558	-1	
53	0	668.2223	0	936	1551	2975	4263	501	-14.0	200	1	0	669.6156	0	
54	1	680.0539	0	936	1551	2975	4263	501	-14.0	200	1	1	681.3938	1	
55	0	707.6206	1	437	2761	2975	4263	561	-10.5	200	0	0	708.8973	1	
56	0	716.7549	1	936	1551	2975	4263	541	-11.0	200	1	1	726.5025	1	
57	0	732.5296	1	437	2761	2975	4263	581	-4.5	200	0	0	735.8450	1	
58	0	746.3602	1	437	2761	2975	4263	511	-7.5	200	0	0	752.2263	1	
59	0	762.3926	0	936	1551	2975	4263	521	-14.0	200	1	1	764.0879	1	
60	0	769.6791	0	936	1551	2975	4263	571	-14.0	200	1	1	772.1723	1	
61	0	780.2438	0	936	1551	2975	4263	501	-10.5	200	-1	0	781.6074	-1	
62	0	791.9130	1	437	2761	2975	4263	501	-4.5	200	0	0	793.2389	1	
63	0	801.2684	0	437	2761	2975	4263	551	-7.5	200	0	0	802.9478	1	
64	0	811.1324	0	936	1551	2975	4263	511	-9.5	200	1	0	812.7512	0	
65	1	818.4230	1	936	1551	2975	4263	511	-9.5	200	1	1	822.6375	1	
66	0	828.6233	1	437	2761	2975	4263	601	-6.0	200	0	0	834.9960	1	
67	0	846.4192	0	936	1551	2975	4263	521	-14.0	200	1	0	847.9683	0	
68	1	859.5677	0	936	1551	2975	4263	521	-14.0	200	1	0	861.2247	0	
69	1	868.2974	1	936	1551	2975	4263	521	-14.0	200	1	0	871.5488	0	
70	1	877.2221	1	936	1551	2975	4263	521	-14.0	200	1	1	884.0527	1	
71	0	892.2545	0	437	2761	2975	4263	501	-10.5	200	-1	1	893.8437	-1	
72	0	900.6937	0	437	2761	2975	4263	581	-9.0	200	0	0	904.0648	1	
73	0	915.2705	0	936	1551	2975	4263	531	-12.5	200	1	1	916.6093	1	
74	0	930.2934	0	437	2761	2975	4263	541	-6.0	200	0	0	931.6304	1	
75	0	950.2759	0	437	2761	2975	4263	501	-10.5	200	-1	1	952.1431	-1	
76	0	957.2315	0	437	2761	2975	4263	511	-9.0	200	0	0	958.7144	1	
77	0	970.5659	0	936	1551	2975	4263	501	-10.5	200	-1	0	971.6584	-1	
78	0	980.1116	1	936	1551	2975	4263	521	-15.5	200	1	0	983.5276	0	
79	1	989.3994	1	936	1551	2975	4263	521	-15.5	200	1	1	995.1551	1	
80	0	1002.7446	0	936	1551	2975	4263	541	-9.5	200	1	1	1004.8750	1	
81	0	1011.9485	1	936	1551	2975	4263	561	-12.5	200	1	0	1017.7329	0	
82	1	1024.1710	0	936	1551	2975	4263	561	-12.5	200	1	0	1025.7736	0	
83	1	1037.9443	1	936	1551	2975	4263	561	-12.5	200	1	0	1043.9210	0	
84	1	1050.0430	0	936	1551	2975	4263	561	-12.5	200	1	0	1050.7244	0	
85	1	1064.4736	1	936	1551	2975	4263	561	-12.5	200	1	1	1069.8123	1	
86	0	1075.3321	0	437	2761	2975	4263	501	-10.5	200	-1	1	1077.3388	-1	
87	0	1083.4885	0	437	2761	2975	4263	551	-6.0	200	0	0	1085.3432	1	
88	0	1089.9800	0	936	1551	2975	4263	501	-10.5	200	-1	1	1091.9240	-1	
89	0	1097.5458	0	437	2761	2975	4263	601	-4.5	200	0	0	1099.1022	1	
90	0	1110.9989	1	437	2761	2975	4263	571	-10.5	200	0	0	1114.6719	1	
91	0	1127.2452	0	936	1551	2975	4263	591	-11.0	200	1	1	1128.7857	1	
92	0	1134.2075	0	936	1551	2975	4263	521	-14.0	200	1	1	1135.5496	1	
93	0	1143.2740	0	936	1551	2975	4263	501	-10.5	200	-1	0	1144.7556	-1	
94	0	1153.7166	0	437	2761	2975	4263	501	-10.5	200	-1	0	1155.2796	-1	
95	0	1167.8342	0	437	2761	2975	4263	551	-9.0	200	0	0	1169.3511	1	
96	0	1177.8013	0	437	2761	2975	4263	561	-10.5	200	0	0	1179.1429	1	
97	0	1188.9963	1	936	1551	2975	4263	531	-9.5	200	1	0	1192.6539	0	
98	1	1198.3883	1	936	1551	2975	4263	531	-9.5	200	1	1	1203.8015	1	
99	0	1210.2427	0	936	1551	2975	4263	571	-14.0	200	1	0	1212.2667	0	
100	1	1227.7307	1	936	1551	2975	4263	571	-14.0	200	1	0	1232.6279	0	
101	1	1238.3550	0	936	1551	2975	4263	571	-14.0	200	1	1	1239.8072	1	
102	0	1246.8768	0	936	1551	2975	4263	511	-15.5	200	1	0	1248.7644	0	
103	1	1255.6249	0	936	1551	2975	4263	511	-15.5	200	1	1	1257.0850	1	
104	0	1264.8195	0	437	2761	2975	4263	601	-7.5	200	0	0	1266.8662	1	
105	0	1280.9744	0	437	2761	2975	4263	531	-7.5	200	0	0	1282.9204	1	
106	0	1294.4646	0	936	1551	2975	4263	581	-15.5	200	1	0	1297.7876	0	
107	1	1305.4169	0	936	1551	2975	4263	581	-15.5	200	1	1	1306.4399	1	
108	0	1311.9984	0	437	2761	2975	4263	551	-4.5	200	0	0	1313.1410	1	
109	0	1324.7222	0	936	1551	2975	4263	521	-14.0	200	1	1	1325.8877	1	
110	0	1333.1593	0	936	1551	2975	4263	541	-15.5	200	1	1	1334.0488	1	
111	0	1341.6360	0	936	1551	2975	4263	501	-10.5	200	-1	1	1343.0383	-1	
112	0	1349.4755	0	437	2761	2975	4263	501	-10.5	200	-1	0	1351.1737	-1	
113	0	1364.2666	0	437	2761	2975	4263	601	-7.5	200	0	0	1366.6062	1	
114	0	1379.5854	0	936	1551	2975	4263	501	-10.5	200	-1	0	1382.3215	-1	
115	0	1393.9514	0	936	1551	2975	4263	561	-15.5	200	1	1	1395.4864	1	
116	0	1401.0689	0	936	1551	2975	4263	581	-12.5	200	1	1	1402.3059	1	
117	0	1410.6228	0	437	2761	2975	4263	501	-10.5	200	-1	0	1412.0483	-1	
118	0	1422.3389	0	437	2761	2975	4263	591	-4.5	200	0	0	1424.1735	1	
119	0	1435.4239	1	437	2761	2975	4263	601	-7.5	200	0	0	1438.2653	1	
120	0	1449.9560	0	936	1551	2975	4263	511	-11.0	200	1	0	1452.3874	0	
121	1	1462.4345	1	936	1551	2975	4263	511	-11.0	200	1	1	1466.3452	1	
122	0	1471.9512	0	437	2761	2975	4263	571	-10.5	200	0	1	1476.4376	0	
123	1	1489.1324	0	437	2761	2975	4263	571	-10.5	200	0	0	1490.6317	1	
124	0	1502.7426	1	437	2761	2975	4263	541	-6.0	200	0	0	1506.0446	1	
125	0	1514.1018	0	437	2761	2975	4263	501	-10.5	200	-1	0	1515.9758	-1	
126	0	1529.2634	0	936	1551	2975	4263	561	-12.5	200	1	1	1530.9745	1	
127	0	1537.1706	0	437	2761	2975	4263	501	-4.5	200	0	1	1538.6378	0	
