Trial	CorrectionTrial?	StartTime	CenterReward?	F1	F2	F3	F4	HoldTime	Atten	Pitch	Side	Response	RespTime	Correct	
1	0	9.0691	0	730	2058	2857	4205	801	-20.0	200	1	1	9.2764	1	
2	0	21.1425	1	730	2058	2857	4205	901	-2.0	200	1	1	21.7016	1	
3	0	25.3462	1	730	2058	2857	4205	501	-11.0	200	1	1	29.3609	1	
4	0	34.4335	0	460	1105	2857	4205	851	-4.5	200	0	0	36.9468	1	
5	0	44.3248	0	460	1105	2857	4205	651	0.0	200	0	0	45.1707	1	
6	0	59.5837	0	730	2058	2857	4205	701	-20.0	200	1	1	59.9456	1	
7	0	65.1121	0	460	1105	2857	4205	751	-13.5	200	0	0	66.5288	1	
8	0	77.8252	1	460	1105	2857	4205	951	-4.5	200	0	0	78.1940	1	
9	0	84.4400	0	730	2058	2857	4205	551	-11.0	200	1	1	87.4072	1	
10	0	91.5576	1	460	1105	2857	4205	1001	-4.5	200	0	1	95.2662	0	
11	1	105.2543	0	460	1105	2857	4205	1001	-4.5	200	0	0	105.9935	1	
12	0	120.8747	0	460	1105	2857	4205	801	0.0	200	0	0	121.6634	1	
13	0	128.8034	0	460	1105	2857	4205	651	-13.5	200	0	0	129.1441	1	
14	0	140.3300	0	730	2058	2857	4205	751	-15.5	200	1	1	140.6456	1	
15	0	157.3825	0	460	1105	2857	4205	901	-18.0	200	0	0	158.2450	1	
16	0	163.4169	0	730	2058	2857	4205	501	-2.0	200	1	1	163.7243	1	
17	0	171.6951	0	730	2058	2857	4205	851	-6.5	200	1	1	172.0756	1	
18	0	176.9604	0	460	1105	2857	4205	551	0.0	200	0	0	177.8644	1	
19	0	187.5603	0	460	1105	2857	4205	1001	-9.0	200	0	1	190.5765	0	
20	1	200.0452	0	460	1105	2857	4205	1001	-9.0	200	0	0	200.4439	1	
21	0	212.3140	1	730	2058	2857	4205	601	-15.5	200	1	1	212.9981	1	
22	0	217.3526	0	730	2058	2857	4205	701	-6.5	200	1	1	220.3203	1	
23	0	225.4348	0	460	1105	2857	4205	701	0.0	200	0	1	226.8678	0	
24	1	237.8664	0	460	1105	2857	4205	701	0.0	200	0	0	238.8546	1	
25	0	251.4506	0	730	2058	2857	4205	951	-15.5	200	1	1	251.8348	1	
26	0	256.8070	0	730	2058	2857	4205	901	-6.5	200	1	1	257.3199	1	
27	0	261.8445	0	460	1105	2857	4205	551	-18.0	200	0	0	262.9955	1	
28	0	268.4685	0	730	2058	2857	4205	601	-6.5	200	1	0	269.3114	0	
29	1	281.1050	0	730	2058	2857	4205	601	-6.5	200	1	1	281.5107	1	
30	0	295.8238	0	730	2058	2857	4205	751	-2.0	200	1	1	296.2150	1	
31	0	305.6319	0	460	1105	2857	4205	801	-13.5	200	0	0	306.0063	1	
32	0	316.3376	0	460	1105	2857	4205	651	-18.0	200	0	0	317.1910	1	
33	0	322.1031	0	730	2058	2857	4205	501	-20.0	200	1	1	322.4696	1	
34	0	331.5190	0	460	1105	2857	4205	1001	-13.5	200	0	0	331.8806	1	
35	0	341.5816	0	730	2058	2857	4205	651	-11.0	200	1	1	342.0491	1	
36	0	347.0410	0	460	1105	2857	4205	801	-4.5	200	0	0	347.4454	1	
37	0	369.3735	0	460	1105	2857	4205	901	-13.5	200	0	0	369.9998	1	
38	0	387.2677	0	460	1105	2857	4205	951	0.0	200	0	0	388.5488	1	
39	0	395.3275	0	730	2058	2857	4205	701	-6.5	200	1	1	395.6247	1	
40	0	403.2801	0	460	1105	2857	4205	851	-18.0	200	0	1	403.5847	0	
41	1	413.2670	0	460	1105	2857	4205	851	-18.0	200	0	0	414.4489	1	
42	0	420.5896	0	730	2058	2857	4205	601	-6.5	200	1	1	421.2768	1	
43	0	429.4958	1	730	2058	2857	4205	1001	-15.5	200	1	1	429.8516	1	
44	0	433.8885	0	460	1105	2857	4205	551	-18.0	200	0	1	437.0579	0	
45	1	446.6845	0	460	1105	2857	4205	551	-18.0	200	0	0	447.8635	1	
46	0	454.2074	0	730	2058	2857	4205	501	-2.0	200	1	1	454.6579	1	
47	0	459.8261	0	730	2058	2857	4205	501	-11.0	200	1	1	460.6303	1	
48	0	465.1302	0	730	2058	2857	4205	851	-2.0	200	1	1	465.6117	1	
49	0	470.9020	0	730	2058	2857	4205	651	-15.5	200	1	1	471.4602	1	
50	0	476.7657	0	460	1105	2857	4205	701	-18.0	200	0	0	478.5719	1	
51	0	486.3814	0	460	1105	2857	4205	601	-13.5	200	0	0	487.6013	1	
52	0	502.7396	0	730	2058	2857	4205	901	-20.0	200	1	1	503.2672	1	
53	0	512.3636	0	460	1105	2857	4205	951	-9.0	200	0	0	513.1831	1	
54	0	524.4038	0	460	1105	2857	4205	801	-4.5	200	0	0	526.5623	1	
55	0	546.8846	0	730	2058	2857	4205	1001	-6.5	200	1	1	547.2889	1	
56	0	552.7318	0	460	1105	2857	4205	551	-13.5	200	0	1	553.8109	0	
57	1	564.4750	0	460	1105	2857	4205	551	-13.5	200	0	0	565.7673	1	
58	0	576.2951	0	730	2058	2857	4205	601	-20.0	200	1	1	576.7336	1	
59	0	581.2965	0	460	1105	2857	4205	751	0.0	200	0	0	581.8980	1	
60	0	588.8415	0	460	1105	2857	4205	801	-9.0	200	0	0	589.5612	1	
61	0	600.3134	0	460	1105	2857	4205	551	0.0	200	0	0	600.8936	1	
62	0	611.7804	0	460	1105	2857	4205	951	-13.5	200	0	0	612.8930	1	
63	0	620.4997	0	730	2058	2857	4205	501	-20.0	200	1	1	620.8184	1	
64	0	625.8777	1	730	2058	2857	4205	851	-15.5	200	1	1	626.2724	1	
65	0	630.8862	0	730	2058	2857	4205	701	-20.0	200	1	1	634.2244	1	
66	0	639.1227	0	460	1105	2857	4205	651	-4.5	200	0	1	639.9981	0	
67	1	648.6107	0	460	1105	2857	4205	651	-4.5	200	0	0	649.4626	1	
68	0	655.7789	0	730	2058	2857	4205	1001	-11.0	200	1	1	656.1765	1	
69	0	660.3938	0	460	1105	2857	4205	1001	-9.0	200	0	0	661.7202	1	
70	0	670.4998	0	730	2058	2857	4205	901	-15.5	200	1	1	671.0378	1	
71	0	677.6279	0	460	1105	2857	4205	651	-18.0	200	0	1	678.1483	0	
72	1	687.3227	0	460	1105	2857	4205	651	-18.0	200	0	0	688.4294	1	
73	0	694.0325	0	460	1105	2857	4205	501	0.0	200	0	0	694.5639	1	
74	0	701.6210	0	730	2058	2857	4205	851	-20.0	200	1	1	701.8844	1	
75	0	711.1845	0	730	2058	2857	4205	701	-11.0	200	1	1	711.6302	1	
76	0	719.2135	0	730	2058	2857	4205	951	-15.5	200	1	1	719.5194	1	
77	0	725.1245	0	460	1105	2857	4205	751	-4.5	200	0	0	726.0401	1	
78	0	732.2985	0	730	2058	2857	4205	551	-15.5	200	1	1	732.6877	1	
79	0	738.5730	0	460	1105	2857	4205	801	-18.0	200	0	0	739.2803	1	
80	0	745.2486	0	460	1105	2857	4205	601	-4.5	200	0	0	746.0807	1	
81	0	756.8594	0	460	1105	2857	4205	651	0.0	200	0	0	757.7072	1	
82	0	768.2638	0	730	2058	2857	4205	701	-11.0	200	1	1	768.8302	1	
83	0	774.0920	1	730	2058	2857	4205	951	-2.0	200	1	1	774.5747	1	
84	0	779.4346	0	460	1105	2857	4205	551	-4.5	200	0	1	783.5053	0	
85	1	794.0443	0	460	1105	2857	4205	551	-4.5	200	0	1	794.9164	0	
86	1	807.0395	0	460	1105	2857	4205	551	-4.5	200	0	0	808.3653	1	
87	0	814.1564	0	730	2058	2857	4205	501	-15.5	200	1	1	815.0300	1	
88	0	819.2796	0	460	1105	2857	4205	901	0.0	200	0	0	820.6452	1	
89	0	825.8520	0	730	2058	2857	4205	851	-6.5	200	1	1	826.4651	1	
90	0	843.2107	0	730	2058	2857	4205	1001	-20.0	200	1	1	843.5890	1	
91	0	849.2589	0	460	1105	2857	4205	801	-9.0	200	0	1	850.5571	0	
92	1	859.5550	0	460	1105	2857	4205	801	-9.0	200	0	0	860.8498	1	
93	0	867.9316	0	460	1105	2857	4205	601	-4.5	200	0	0	868.3749	1	
94	0	880.7994	0	730	2058	2857	4205	801	-15.5	200	1	1	881.4186	1	
95	0	886.3996	0	730	2058	2857	4205	651	-11.0	200	1	1	886.9249	1	
96	0	896.7597	0	730	2058	2857	4205	1001	-20.0	200	1	1	897.2313	1	
97	0	902.4168	0	460	1105	2857	4205	701	-4.5	200	0	0	902.8199	1	
98	0	909.4472	0	460	1105	2857	4205	751	0.0	200	0	0	910.1009	1	
99	0	915.3187	1	730	2058	2857	4205	501	-20.0	200	1	1	915.9277	1	
100	0	920.8902	0	460	1105	2857	4205	851	-13.5	200	0	1	924.3817	0	
101	1	935.5347	0	460	1105	2857	4205	851	-13.5	200	0	0	936.6598	1	
102	0	941.7089	0	730	2058	2857	4205	951	-15.5	200	1	1	942.0164	1	
103	0	947.1008	0	460	1105	2857	4205	551	0.0	200	0	0	947.5770	1	
104	0	953.2015	0	730	2058	2857	4205	501	-20.0	200	1	1	953.6479	1	
105	0	962.1814	0	460	1105	2857	4205	851	-9.0	200	0	0	962.5086	1	
106	0	968.7757	0	730	2058	2857	4205	701	-15.5	200	1	1	969.1778	1	
107	0	977.8756	0	460	1105	2857	4205	651	0.0	200	0	0	978.2066	1	
108	0	992.1171	0	460	1105	2857	4205	1001	-18.0	200	0	1	992.9301	0	
