Trial	CorrectionTrial?	StartTime	CenterReward?	F1	F2	F3	F4	HoldTime	Atten	Pitch	Side	Response	RespTime	Correct	
1	0	8.8672	0	730	2058	2857	4205	601	-15.5	200	1	0	10.7008	0	
2	1	21.5694	0	730	2058	2857	4205	601	-15.5	200	1	1	23.0858	1	
3	0	28.4316	0	460	1105	2857	4205	851	0.0	200	0	0	29.0472	1	
4	0	36.6776	0	730	2058	2857	4205	1001	-11.0	200	1	1	37.3990	1	
5	0	49.9114	0	730	2058	2857	4205	801	-6.5	200	1	1	51.2998	1	
6	0	56.1862	0	730	2058	2857	4205	551	-15.5	200	1	1	57.4437	1	
7	0	67.0971	0	460	1105	2857	4205	651	0.0	200	0	0	67.6989	1	
8	0	74.5409	1	460	1105	2857	4205	701	-9.0	200	0	0	75.2230	1	
9	0	82.3670	0	460	1105	2857	4205	901	-18.0	200	0	0	83.9598	1	
10	0	91.8473	0	730	2058	2857	4205	751	-6.5	200	1	0	92.8755	0	
11	1	106.1703	0	730	2058	2857	4205	751	-6.5	200	1	0	108.7307	0	
12	1	131.4884	0	730	2058	2857	4205	751	-6.5	200	1	0	132.3910	0	
13	1	145.4233	0	730	2058	2857	4205	751	-6.5	200	1	1	146.8313	1	
14	0	157.7715	0	460	1105	2857	4205	951	0.0	200	0	0	158.5630	1	
15	0	163.7354	0	730	2058	2857	4205	851	-11.0	200	1	1	165.0449	1	
16	0	172.8091	0	460	1105	2857	4205	501	-13.5	200	0	1	173.4409	0	
17	1	189.1631	0	460	1105	2857	4205	501	-13.5	200	0	1	190.9902	0	
18	1	209.2906	1	460	1105	2857	4205	501	-13.5	200	0	0	210.1647	1	
19	0	215.4248	0	460	1105	2857	4205	651	-18.0	200	0	0	216.2602	1	
20	0	222.8665	0	730	2058	2857	4205	751	-15.5	200	1	1	224.7662	1	
21	0	228.0703	0	730	2058	2857	4205	601	-11.0	200	1	1	230.1140	1	
22	0	238.9408	0	730	2058	2857	4205	951	-2.0	200	1	1	239.6213	1	
23	0	245.4240	0	460	1105	2857	4205	801	-13.5	200	0	0	246.0544	1	
24	0	252.7455	0	460	1105	2857	4205	551	0.0	200	0	0	253.3737	1	
25	0	260.0946	0	460	1105	2857	4205	701	-4.5	200	0	1	261.4196	0	
26	1	274.9504	0	460	1105	2857	4205	701	-4.5	200	0	0	275.6915	1	
27	0	283.1109	0	730	2058	2857	4205	901	-11.0	200	1	1	284.1771	1	
28	0	295.3826	0	730	2058	2857	4205	501	-11.0	200	1	1	296.8193	1	
29	0	317.3054	0	460	1105	2857	4205	901	-18.0	200	0	0	318.0731	1	
30	0	324.4515	0	460	1105	2857	4205	851	-4.5	200	0	0	325.3293	1	
31	0	336.6853	0	460	1105	2857	4205	951	0.0	200	0	0	337.4051	1	
32	0	347.5606	0	730	2058	2857	4205	1001	-2.0	200	1	1	348.3126	1	
33	0	352.4409	0	730	2058	2857	4205	601	-6.5	200	1	1	353.6924	1	
34	0	362.3525	0	460	1105	2857	4205	551	-18.0	200	0	0	363.3012	1	
35	0	370.0230	1	460	1105	2857	4205	701	-13.5	200	0	0	370.5548	1	
36	0	377.0282	0	730	2058	2857	4205	801	-20.0	200	1	1	378.8084	1	
37	0	384.3512	0	730	2058	2857	4205	651	-15.5	200	1	1	385.4758	1	
38	0	390.6679	0	730	2058	2857	4205	651	-2.0	200	1	1	391.4418	1	
39	0	400.4879	0	460	1105	2857	4205	501	-9.0	200	0	0	401.1683	1	
40	0	411.0059	0	460	1105	2857	4205	701	-18.0	200	0	0	411.9546	1	
41	0	418.2011	0	730	2058	2857	4205	901	-15.5	200	1	1	419.2846	1	
42	0	425.5741	0	730	2058	2857	4205	1001	-2.0	200	1	1	426.6340	1	
43	0	445.0602	0	730	2058	2857	4205	801	-6.5	200	1	1	446.4507	1	
44	0	453.5806	0	460	1105	2857	4205	751	-18.0	200	0	0	454.1348	1	
45	0	460.0766	0	730	2058	2857	4205	601	-2.0	200	1	1	461.3711	1	
46	0	465.8945	0	460	1105	2857	4205	551	-4.5	200	0	0	466.6820	1	
47	0	474.0980	0	460	1105	2857	4205	951	-13.5	200	0	0	475.2628	1	
48	0	486.6696	0	460	1105	2857	4205	851	-9.0	200	0	0	487.3297	1	
49	0	493.4952	0	730	2058	2857	4205	751	-6.5	200	1	1	494.9854	1	
50	0	504.9330	1	460	1105	2857	4205	701	-18.0	200	0	1	510.4074	0	
51	1	523.9273	0	460	1105	2857	4205	701	-18.0	200	0	0	524.7082	1	
52	0	530.0652	0	460	1105	2857	4205	651	0.0	200	0	0	530.9046	1	
53	0	540.1662	0	730	2058	2857	4205	951	-20.0	200	1	1	541.4038	1	
54	0	547.0578	0	460	1105	2857	4205	901	0.0	200	0	0	547.9850	1	
55	0	553.8623	0	730	2058	2857	4205	1001	-6.5	200	1	1	554.5966	1	
56	0	559.6038	0	730	2058	2857	4205	801	-15.5	200	1	1	560.7187	1	
57	0	570.3877	0	730	2058	2857	4205	551	-2.0	200	1	1	571.8378	1	
58	0	579.9624	0	460	1105	2857	4205	601	-4.5	200	0	0	580.6060	1	
59	0	588.3907	1	730	2058	2857	4205	701	-15.5	200	1	1	589.8496	1	
60	0	595.1459	0	460	1105	2857	4205	801	-18.0	200	0	0	597.2925	1	
61	0	603.6106	0	460	1105	2857	4205	1001	-9.0	200	0	0	604.7148	1	
62	0	611.0611	0	460	1105	2857	4205	601	-18.0	200	0	0	612.1458	1	
63	0	618.9133	1	730	2058	2857	4205	851	-2.0	200	1	1	620.2952	1	
64	0	626.6233	0	730	2058	2857	4205	901	-15.5	200	1	1	631.0086	1	
65	0	636.4779	0	460	1105	2857	4205	501	-9.0	200	0	0	637.4169	1	
66	0	644.3731	0	460	1105	2857	4205	651	-4.5	200	0	0	645.1279	1	
67	0	653.7334	0	730	2058	2857	4205	751	-20.0	200	1	1	654.8312	1	
68	0	669.5149	0	730	2058	2857	4205	951	-15.5	200	1	1	671.0124	1	
69	0	677.7757	0	730	2058	2857	4205	601	-2.0	200	1	0	678.5903	0	
70	1	696.9486	0	730	2058	2857	4205	601	-2.0	200	1	1	697.9601	1	
71	0	705.0975	0	460	1105	2857	4205	851	-13.5	200	0	0	705.5855	1	
72	0	717.1657	0	730	2058	2857	4205	801	-11.0	200	1	1	718.4438	1	
73	0	726.2342	0	460	1105	2857	4205	701	-18.0	200	0	0	727.2788	1	
74	0	732.5909	0	730	2058	2857	4205	951	-20.0	200	1	1	733.2859	1	
75	0	738.7824	1	460	1105	2857	4205	1001	-9.0	200	0	0	739.1912	1	
76	0	744.7830	0	730	2058	2857	4205	551	-15.5	200	1	1	750.2159	1	
77	0	754.8086	0	460	1105	2857	4205	501	-4.5	200	0	0	755.3164	1	
78	0	762.9554	0	460	1105	2857	4205	651	0.0	200	0	0	764.0733	1	
79	0	770.8474	0	730	2058	2857	4205	901	-11.0	200	1	1	772.3187	1	
80	0	783.2370	0	730	2058	2857	4205	1001	-15.5	200	1	1	784.4610	1	
81	0	789.1091	0	730	2058	2857	4205	751	-20.0	200	1	1	790.1825	1	
82	0	802.9216	0	460	1105	2857	4205	801	-13.5	200	0	0	803.7392	1	
83	0	810.5395	0	730	2058	2857	4205	951	-6.5	200	1	1	811.2604	1	
84	0	816.1028	0	730	2058	2857	4205	601	-11.0	200	1	1	817.5526	1	
85	0	822.8574	0	460	1105	2857	4205	651	-18.0	200	0	0	823.3752	1	
86	0	830.3653	0	460	1105	2857	4205	851	-13.5	200	0	0	831.1171	1	
87	0	838.4685	1	730	2058	2857	4205	901	-11.0	200	1	1	840.3851	1	
88	0	844.3890	0	460	1105	2857	4205	701	0.0	200	0	1	852.0374	0	
89	1	867.9734	0	460	1105	2857	4205	701	0.0	200	0	0	868.6881	1	
90	0	875.2837	0	460	1105	2857	4205	551	-4.5	200	0	0	876.2310	1	
91	0	883.3294	0	730	2058	2857	4205	651	-11.0	200	1	1	884.4406	1	
92	0	889.7829	0	730	2058	2857	4205	801	-2.0	200	1	1	890.6709	1	
93	0	899.2484	1	460	1105	2857	4205	951	-18.0	200	0	0	903.2617	1	
94	0	908.5279	0	460	1105	2857	4205	551	-13.5	200	0	1	910.8174	0	
95	1	922.0816	0	460	1105	2857	4205	551	-13.5	200	0	0	922.7040	1	
96	0	929.1413	0	460	1105	2857	4205	851	-18.0	200	0	0	929.7021	1	
97	0	936.3117	0	460	1105	2857	4205	701	0.0	200	0	0	936.8712	1	
98	0	944.0171	0	730	2058	2857	4205	1001	-6.5	200	1	1	944.9662	1	
99	0	951.7874	0	730	2058	2857	4205	501	-15.5	200	1	1	952.8754	1	
100	0	960.8389	0	730	2058	2857	4205	901	-2.0	200	1	1	961.9579	1	
101	0	969.4663	0	460	1105	2857	4205	751	-9.0	200	0	0	970.2006	1	
102	0	978.0772	0	730	2058	2857	4205	901	-6.5	200	1	1	979.0014	1	
103	0	986.8911	0	460	1105	2857	4205	701	-13.5	200	0	0	987.5493	1	
104	0	995.1721	0	730	2058	2857	4205	801	-11.0	200	1	1	996.5209	1	
105	0	1005.6611	0	730	2058	2857	4205	751	-20.0	200	1	1	1006.3599	1	
106	0	1014.1624	0	460	1105	2857	4205	601	-4.5	200	0	0	1014.8907	1	
107	0	1021.4937	0	730	2058	2857	4205	551	-2.0	200	1	1	1022.2773	1	
108	0	1026.4893	0	730	2058	2857	4205	501	-6.5	200	1	1	1027.7750	1	
109	0	1033.7538	0	460	1105	2857	4205	951	-9.0	200	0	0	1034.5339	1	
110	0	1043.2528	0	460	1105	2857	4205	651	-18.0	200	0	0	1043.7309	1	
111	0	1051.1543	0	460	1105	2857	4205	1001	-13.5	200	0	0	1051.5046	1	
112	0	1057.7838	0	730	2058	2857	4205	551	-15.5	200	1	1	1059.1774	1	
113	0	1066.7822	0	460	1105	2857	4205	901	0.0	200	0	0	1067.3774	1	
114	0	1072.9193	0	730	2058	2857	4205	501	-11.0	200	1	1	1074.3847	1	
115	0	1079.1748	0	730	2058	2857	4205	851	-20.0	200	1	1	1080.1483	1	
116	0	1092.8451	0	460	1105	2857	4205	701	-9.0	200	0	0	1093.6815	1	
117	0	1105.1150	0	730	2058	2857	4205	951	-15.5	200	1	1	1105.7511	1	
118	0	1110.7861	0	460	1105	2857	4205	601	0.0	200	0	0	1111.5265	1	
119	0	1118.5448	0	460	1105	2857	4205	801	-4.5	200	0	0	1119.1030	1	
120	0	1125.9947	0	460	1105	2857	4205	751	-13.5	200	0	0	1126.4428	1	
121	0	1132.9051	0	730	2058	2857	4205	1001	-2.0	200	1	1	1134.2175	1	
122	0	1149.8074	0	730	2058	2857	4205	951	-6.5	200	1	1	1151.1503	1	
123	0	1161.7081	0	460	1105	2857	4205	501	-18.0	200	0	0	1162.3139	1	
124	0	1168.0293	0	460	1105	2857	4205	851	-9.0	200	0	0	1168.5527	1	
125	0	1174.0380	0	460	1105	2857	4205	801	-13.5	200	0	0	1174.5744	1	
126	0	1181.6556	0	460	1105	2857	4205	901	-4.5	200	0	0	1182.1849	1	
127	0	1193.6695	0	730	2058	2857	4205	651	-20.0	200	1	1	1194.5583	1	
128	0	1199.2987	0	460	1105	2857	4205	701	-4.5	200	0	0	1199.8808	1	
129	0	1207.3092	0	730	2058	2857	4205	751	-15.5	200	1	1	1208.3323	1	
130	0	1213.2906	0	730	2058	2857	4205	1001	-2.0	200	1	1	1213.8276	1	
131	0	1220.2808	0	730	2058	2857	4205	551	-20.0	200	1	1	1220.9872	1	
132	0	1231.8527	0	730	2058	2857	4205	1001	-15.5	200	1	1	1232.7669	1	
133	0	1241.0642	0	460	1105	2857	4205	751	-18.0	200	0	0	1241.5070	1	
134	0	1249.3514	0	460	1105	2857	4205	551	0.0	200	0	0	1250.2910	1	
135	0	1257.7353	0	460	1105	2857	4205	901	-4.5	200	0	0	1258.2202	1	
136	0	1264.6869	0	460	1105	2857	4205	501	-18.0	200	0	1	1266.1681	0	
137	1	1277.2617	0	460	1105	2857	4205	501	-18.0	200	0	0	1278.0581	1	
138	0	1284.0309	0	730	2058	2857	4205	601	-2.0	200	1	0	1284.9683	0	
139	1	1298.2439	0	730	2058	2857	4205	601	-2.0	200	1	1	1298.8564	1	
140	0	1316.6427	0	730	2058	2857	4205	851	-6.5	200	1	0	1316.9893	0	
141	1	1328.0147	0	730	2058	2857	4205	851	-6.5	200	1	1	1328.8440	1	
142	0	1334.4100	0	460	1105	2857	4205	651	-9.0	200	0	0	1334.9222	1	
143	0	1343.8172	0	730	2058	2857	4205	801	-20.0	200	1	1	1344.7037	1	
144	0	1355.7770	0	730	2058	2857	4205	951	-2.0	200	1	1	1356.9959	1	
145	0	1365.9422	0	460	1105	2857	4205	901	-13.5	200	0	0	1366.2132	1	
146	0	1372.9477	0	730	2058	2857	4205	801	-6.5	200	1	1	1374.4212	1	
147	0	1381.4666	0	460	1105	2857	4205	551	-4.5	200	0	0	1382.3659	1	
148	0	1388.0345	0	730	2058	2857	4205	651	-2.0	200	1	1	1388.8340	1	
149	0	1395.7149	0	730	2058	2857	4205	851	-15.5	200	1	1	1396.5360	1	
150	0	1404.8975	0	460	1105	2857	4205	751	-18.0	200	0	0	1405.5975	1	
151	0	1423.2755	0	730	2058	2857	4205	951	-2.0	200	1	1	1424.3811	1	
152	0	1428.7241	0	730	2058	2857	4205	501	-15.5	200	1	1	1430.2441	1	
153	0	1437.9873	0	460	1105	2857	4205	1001	-4.5	200	0	0	1438.4484	1	
154	0	1445.7214	0	460	1105	2857	4205	701	-18.0	200	0	0	1446.5152	1	
155	0	1453.1202	0	460	1105	2857	4205	651	-9.0	200	0	0	1453.9997	1	
156	0	1462.0315	0	730	2058	2857	4205	951	-20.0	200	1	1	1462.6687	1	
157	0	1472.1437	0	730	2058	2857	4205	851	-2.0	200	1	1	1473.3795	1	
158	0	1478.5918	0	730	2058	2857	4205	801	-15.5	200	1	1	1479.1922	1	
159	0	1490.7145	0	460	1105	2857	4205	601	-9.0	200	0	0	1491.5014	1	
160	0	1498.1448	0	460	1105	2857	4205	751	-18.0	200	0	0	1498.6188	1	
161	0	1505.2757	0	460	1105	2857	4205	901	0.0	200	0	0	1506.0700	1	
162	0	1512.5394	0	460	1105	2857	4205	501	-4.5	200	0	0	1513.1949	1	
163	0	1519.9522	0	730	2058	2857	4205	1001	-15.5	200	1	1	1520.6810	1	
164	0	1528.4232	0	730	2058	2857	4205	551	-20.0	200	1	1	1529.4172	1	
165	0	1534.0533	1	460	1105	2857	4205	901	-9.0	200	0	1	1536.1027	0	
166	1	1554.7059	0	460	1105	2857	4205	901	-9.0	200	0	0	1555.2442	1	
167	0	1562.6969	0	730	2058	2857	4205	501	-6.5	200	1	0	1563.9945	0	
168	1	1575.2267	0	730	2058	2857	4205	501	-6.5	200	1	1	1576.6320	1	
169	0	1585.9384	0	730	2058	2857	4205	601	-2.0	200	1	1	1587.7400	1	
170	0	1596.8253	0	460	1105	2857	4205	751	-18.0	200	0	0	1597.4998	1	
171	0	1604.0021	0	730	2058	2857	4205	701	-6.5	200	1	1	1605.6504	1	
172	0	1610.5372	1	460	1105	2857	4205	851	-13.5	200	0	0	1611.5220	1	
173	0	1617.6003	0	460	1105	2857	4205	1001	-18.0	200	0	1	1621.8289	0	
174	1	1634.0802	0	460	1105	2857	4205	1001	-18.0	200	0	0	1634.4798	1	
175	0	1640.4703	0	730	2058	2857	4205	951	-11.0	200	1	0	1641.1114	0	
176	1	1655.0792	0	730	2058	2857	4205	951	-11.0	200	1	1	1656.4504	1	
177	0	1660.5543	0	730	2058	2857	4205	551	-15.5	200	1	1	1661.8997	1	
178	0	1666.5303	0	460	1105	2857	4205	651	0.0	200	0	0	1666.9686	1	
179	0	1680.2074	0	730	2058	2857	4205	851	-20.0	200	1	1	1680.9933	1	
180	0	1694.8086	1	460	1105	2857	4205	801	0.0	200	0	0	1695.8169	1	
181	0	1707.5785	0	460	1105	2857	4205	601	-4.5	200	0	0	1708.5723	1	
182	0	1714.1745	0	460	1105	2857	4205	551	-9.0	200	0	0	1714.7750	1	
183	0	1722.6718	1	730	2058	2857	4205	501	-6.5	200	1	1	1732.3921	1	
184	0	1737.7190	0	460	1105	2857	4205	751	-13.5	200	0	1	1739.5478	0	
185	1	1750.4287	0	460	1105	2857	4205	751	-13.5	200	0	0	1750.8835	1	
186	0	1758.4084	0	730	2058	2857	4205	1001	-2.0	200	1	1	1759.6423	1	
187	0	1764.3535	0	730	2058	2857	4205	901	-11.0	200	1	1	1765.3840	1	
188	0	1770.8148	0	730	2058	2857	4205	651	-2.0	200	1	1	1772.0209	1	
189	0	1785.3430	0	460	1105	2857	4205	951	-18.0	200	0	0	1785.9024	1	
190	0	1792.7786	0	460	1105	2857	4205	701	-9.0	200	0	0	1793.3551	1	
191	0	1799.2655	0	460	1105	2857	4205	501	-4.5	200	0	0	1799.9831	1	
192	0	1807.3541	0	460	1105	2857	4205	751	-9.0	200	0	0	1808.1815	1	
193	0	1815.5605	0	460	1105	2857	4205	601	-18.0	200	0	0	1816.4380	1	
194	0	1827.7350	0	730	2058	2857	4205	1001	-2.0	200	1	1	1829.0590	1	
195	0	1834.0667	0	460	1105	2857	4205	551	-4.5	200	0	1	1834.9919	0	
196	1	1847.1597	0	460	1105	2857	4205	551	-4.5	200	0	0	1847.9120	1	
197	0	1854.1719	0	730	2058	2857	4205	651	-6.5	200	1	1	1855.4049	1	
198	0	1861.1757	1	730	2058	2857	4205	901	-15.5	200	1	1	1861.8845	1	
199	0	1868.4700	0	730	2058	2857	4205	951	-2.0	200	1	1	1870.1258	1	
200	0	1874.9006	0	730	2058	2857	4205	801	-11.0	200	1	1	1877.6685	1	
201	0	1883.2417	0	730	2058	2857	4205	801	-6.5	200	1	1	1884.7151	1	
202	0	1890.8681	0	460	1105	2857	4205	1001	-18.0	200	0	0	1891.4176	1	
203	0	1898.6498	0	730	2058	2857	4205	951	-15.5	200	1	0	1899.4854	0	
204	1	1913.3761	0	730	2058	2857	4205	951	-15.5	200	1	1	1913.9666	1	
205	0	1921.3533	0	460	1105	2857	4205	551	0.0	200	0	0	1922.2320	1	
206	0	1927.1095	0	730	2058	2857	4205	651	-11.0	200	1	1	1928.2135	1	
207	0	1932.6458	0	460	1105	2857	4205	751	-4.5	200	0	0	1933.4572	1	
208	0	1941.3253	0	730	2058	2857	4205	501	-15.5	200	1	1	1942.6501	1	
209	0	1948.4675	0	460	1105	2857	4205	601	-18.0	200	0	1	1949.6685	0	
210	1	1963.9863	0	460	1105	2857	4205	601	-18.0	200	0	0	1964.7126	1	
211	0	1971.4169	0	460	1105	2857	4205	701	-4.5	200	0	0	1972.3262	1	
212	0	1978.2376	0	730	2058	2857	4205	851	-15.5	200	1	1	1979.3363	1	
213	0	1985.0066	0	460	1105	2857	4205	701	-9.0	200	0	0	1985.4647	1	
214	0	1992.6250	0	730	2058	2857	4205	801	-20.0	200	1	1	1993.7965	1	
215	0	2000.1690	0	730	2058	2857	4205	501	-6.5	200	1	1	2001.4816	1	
216	0	2007.1447	0	460	1105	2857	4205	751	-9.0	200	0	0	2007.8710	1	
217	0	2019.6532	0	730	2058	2857	4205	1001	-20.0	200	1	1	2020.8396	1	
218	0	2032.0222	1	460	1105	2857	4205	651	-13.5	200	0	0	2033.8036	1	
219	0	2039.6412	0	460	1105	2857	4205	851	-13.5	200	0	1	2042.6626	0	
