Trial	CorrectionTrial?	StartTime	CenterReward?	F1	F2	F3	F4	HoldTime	Atten	Pitch	Side	Response	RespTime	Correct	
1	0	54.2905	0	460	1105	2857	4205	501	-18.0	200	0	0	56.2033	1	
2	0	64.9122	0	730	2058	2857	4205	601	-2.0	200	1	1	65.7749	1	
3	0	73.6372	0	730	2058	2857	4205	551	-11.0	200	1	1	74.9803	1	
4	0	84.6268	0	460	1105	2857	4205	851	-4.5	200	0	0	86.3585	1	
5	0	98.5385	0	730	2058	2857	4205	801	-6.5	200	1	1	99.8033	1	
6	0	106.1006	1	460	1105	2857	4205	901	-18.0	200	0	0	110.2572	1	
7	0	119.2069	1	460	1105	2857	4205	701	-13.5	200	0	0	123.1755	1	
8	0	137.0928	1	730	2058	2857	4205	751	-11.0	200	1	0	142.5514	0	
9	1	156.4753	0	730	2058	2857	4205	751	-11.0	200	1	1	157.4902	1	
10	0	164.9535	0	460	1105	2857	4205	651	-18.0	200	0	0	166.7894	1	
11	0	174.2178	0	730	2058	2857	4205	1001	-15.5	200	1	1	175.4974	1	
12	0	182.2531	0	460	1105	2857	4205	701	-4.5	200	0	0	183.5507	1	
13	0	189.5172	1	730	2058	2857	4205	851	-11.0	200	1	1	195.7047	1	
14	0	200.1995	0	460	1105	2857	4205	651	-9.0	200	0	0	201.7197	1	
15	0	208.0569	1	730	2058	2857	4205	601	-2.0	200	1	1	213.2687	1	
16	0	220.9594	1	730	2058	2857	4205	751	-6.5	200	1	1	225.0267	1	
17	0	232.2263	0	730	2058	2857	4205	1001	-20.0	200	1	1	233.3291	1	
18	0	246.0588	0	460	1105	2857	4205	801	-4.5	200	0	0	247.9350	1	
19	0	254.0286	0	730	2058	2857	4205	551	-15.5	200	1	1	254.9433	1	
20	0	263.1081	1	460	1105	2857	4205	951	-18.0	200	0	1	268.3284	0	
21	1	281.6180	0	460	1105	2857	4205	951	-18.0	200	0	0	282.4612	1	
22	0	287.9451	0	460	1105	2857	4205	501	-9.0	200	0	0	289.1102	1	
23	0	294.9431	0	730	2058	2857	4205	551	-6.5	200	1	1	296.4825	1	
24	0	304.1920	0	730	2058	2857	4205	701	-15.5	200	1	1	305.5418	1	
25	0	312.9023	0	460	1105	2857	4205	651	0.0	200	0	0	314.6609	1	
26	0	320.9333	0	730	2058	2857	4205	501	-20.0	200	1	1	321.9185	1	
27	0	327.3254	0	460	1105	2857	4205	601	-9.0	200	0	0	328.7245	1	
28	0	335.3712	0	460	1105	2857	4205	951	-13.5	200	0	0	336.7593	1	
29	0	343.2719	0	460	1105	2857	4205	901	-18.0	200	0	0	344.2576	1	
30	0	351.0717	0	460	1105	2857	4205	751	-4.5	200	0	0	352.0826	1	
31	0	358.5031	0	730	2058	2857	4205	851	-15.5	200	1	1	359.3872	1	
32	0	365.3701	0	730	2058	2857	4205	801	-11.0	200	1	1	366.6402	1	
33	0	373.9854	0	730	2058	2857	4205	651	-20.0	200	1	1	375.3534	1	
34	0	382.0554	0	460	1105	2857	4205	701	0.0	200	0	1	383.8102	0	
35	1	399.1502	0	460	1105	2857	4205	701	0.0	200	0	0	399.9814	1	
36	0	406.1385	0	730	2058	2857	4205	801	-2.0	200	1	1	407.4759	1	
37	0	414.0959	1	460	1105	2857	4205	551	-9.0	200	0	1	419.3123	0	
38	1	433.1043	0	460	1105	2857	4205	551	-9.0	200	0	0	434.4905	1	
39	0	443.6937	0	730	2058	2857	4205	1001	-15.5	200	1	1	444.6782	1	
40	0	457.8446	0	730	2058	2857	4205	951	-20.0	200	1	1	458.5978	1	
41	0	464.7519	1	460	1105	2857	4205	601	0.0	200	0	0	469.8361	1	
42	0	476.8614	0	460	1105	2857	4205	851	-18.0	200	0	0	477.7943	1	
43	0	484.7639	0	730	2058	2857	4205	901	-15.5	200	1	0	485.8875	0	
44	1	500.9493	0	730	2058	2857	4205	901	-15.5	200	1	1	501.6614	1	
45	0	507.9009	0	460	1105	2857	4205	501	-9.0	200	0	0	509.3494	1	
46	0	516.4820	0	730	2058	2857	4205	701	-20.0	200	1	1	517.0590	1	
47	0	521.1588	0	460	1105	2857	4205	951	-13.5	200	0	0	522.1525	1	
48	0	529.7611	0	460	1105	2857	4205	851	0.0	200	0	0	530.7549	1	
49	0	537.7500	0	730	2058	2857	4205	501	-6.5	200	1	1	538.6929	1	
50	0	545.2584	1	460	1105	2857	4205	801	-18.0	200	0	1	547.8903	0	
51	1	569.4322	0	460	1105	2857	4205	801	-18.0	200	0	0	570.9265	1	
52	0	576.6070	0	460	1105	2857	4205	551	-4.5	200	0	0	577.4801	1	
53	0	583.5227	0	730	2058	2857	4205	751	-2.0	200	1	0	584.6469	0	
54	1	613.2509	0	730	2058	2857	4205	751	-2.0	200	1	0	614.0063	0	
55	1	636.5210	0	730	2058	2857	4205	751	-2.0	200	1	1	637.2764	1	
56	0	644.4188	0	460	1105	2857	4205	601	-13.5	200	0	0	645.4651	1	
57	0	651.4994	0	730	2058	2857	4205	901	-11.0	200	1	1	652.3193	1	
58	0	658.0036	0	730	2058	2857	4205	1001	-6.5	200	1	1	658.5925	1	
59	0	663.3674	0	730	2058	2857	4205	851	-2.0	200	1	1	664.5597	1	
60	0	670.7450	0	460	1105	2857	4205	651	-18.0	200	0	0	671.8945	1	
61	0	676.9635	0	460	1105	2857	4205	951	-18.0	200	0	0	677.7297	1	
62	0	683.9048	0	460	1105	2857	4205	551	-4.5	200	0	0	684.7174	1	
63	0	690.4474	0	460	1105	2857	4205	501	-9.0	200	0	0	691.4390	1	
64	0	695.3982	0	730	2058	2857	4205	751	-2.0	200	1	1	695.8994	1	
65	0	701.8878	0	730	2058	2857	4205	601	-20.0	200	1	1	702.6974	1	
66	0	713.1711	0	460	1105	2857	4205	1001	-9.0	200	0	0	713.7355	1	
67	0	719.9855	0	730	2058	2857	4205	901	-2.0	200	1	0	721.0279	0	
68	1	753.0248	0	730	2058	2857	4205	901	-2.0	200	1	1	757.9682	1	
69	0	914.4211	1	730	2058	2857	4205	701	-6.5	200	1	0	920.2169	0	
70	1	939.2699	0	730	2058	2857	4205	701	-6.5	200	1	1	941.2840	1	
71	0	945.2869	0	460	1105	2857	4205	751	-9.0	200	0	0	945.8133	1	
72	0	957.5746	0	460	1105	2857	4205	601	-18.0	200	0	1	958.0131	0	
73	1	1007.3861	0	460	1105	2857	4205	601	-18.0	200	0	0	1009.4315	1	
74	0	1033.3753	0	730	2058	2857	4205	1001	-15.5	200	1	0	1036.0357	0	
75	1	1093.6389	0	730	2058	2857	4205	1001	-15.5	200	1	0	1095.0878	0	
